File: carbon_superP/N2_0rpm.txt
Index;Column 2 (V);Column 3 (V);Column 4 (V);Column 5 (V);Column 6 (V/s);Column 7 (V);Time (s);Potential applied (V);WE(1).Current (A);WE(1).Potential (V);Scan;Column 13 (RPM);ω (rad/s);Frequency (Hz);Z' (Ω);-Z'' (Ω);Z (Ω);-Phase (°);Time (s);Y' (Mho);-Y'' (Mho)
1;0.1;0.11;-0.9;-0.01;0.01;-0.00244;4141.32;-0.014801;1.93176e-07;-0.014502;3;2000;209.44;100000;39.1549;5.51348;39.5411;8.01524;3525.78;0.0250431;0.00352636
3;;;;;;;4141.8;-0.0196838;1.63666e-07;-0.0193756;3;;;63096;37.9775;3.34208;38.1243;5.02916;3529.37;0.026129;0.00229939
5;;;;;;;4142.29;-0.0245667;1.41296e-07;-0.024295;3;;;39811;37.5651;2.46575;37.646;3.75546;3533.09;0.0265062;0.00173985
7;;;;;;;4142.78;-0.0294495;1.16272e-07;-0.0291077;3;;;25119;37.5453;2.14048;37.6063;3.26294;3536.67;0.0265482;0.00151353
9;;;;;;;4143.27;-0.0343323;9.16443e-08;-0.034021;3;;;15849;37.7701;2.11207;37.8291;3.20059;3540.33;0.0263935;0.0014759
11;;;;;;;4143.76;-0.0392151;7.04346e-08;-0.0388672;3;;;10000;38.082;2.30159;38.1515;3.45862;3545.34;0.0261635;0.00158127
13;;;;;;;4144.25;-0.0440979;4.54712e-08;-0.0437195;3;;;6309.6;38.5167;2.70398;38.6115;4.01573;3548.86;0.0258355;0.00181372
15;;;;;;;4144.73;-0.0489807;2.91443e-08;-0.048587;3;;;3981.1;38.9773;3.35635;39.1216;4.92161;3552.42;0.0254671;0.00219298
17;;;;;;;4145.22;-0.0538635;2.50244e-09;-0.0536194;3;;;2511.9;39.5333;4.3679;39.7739;6.30484;3556.07;0.0249901;0.00276106
19;;;;;;;4145.71;-0.0587463;-2.3468e-08;-0.0585022;3;;;1584.9;40.1819;5.8893;40.6112;8.33825;3559.59;0.0243635;0.00357085
21;;;;;;;4146.2;-0.0636292;-4.35791e-08;-0.0631409;3;;;1000;41.0322;8.19829;41.8432;11.299;3563.15;0.0234356;0.00468246
23;;;;;;;4146.69;-0.068512;-7.78198e-08;-0.0680847;3;;;630.96;42.1531;11.6439;43.7317;15.4417;3566.84;0.0220413;0.00608842
25;;;;;;;4147.17;-0.0733948;-1.0675e-07;-0.072937;3;;;398.11;43.7178;16.7406;46.8134;20.953;3570.42;0.0199489;0.00763888
27;;;;;;;4147.66;-0.0782776;-1.2616e-07;-0.0778809;3;;;251.19;45.9708;24.2426;51.9713;27.8048;3574.04;0.0170198;0.00897534
29;;;;;;;4148.15;-0.0831604;-1.50726e-07;-0.08255;3;;;158.49;49.2116;35.173;60.489;35.5546;3577.58;0.0134498;0.00961295
31;;;;;;;4148.64;-0.0880432;-1.89117e-07;-0.0874939;3;;;100;53.8664;51.0802;74.2346;43.4792;3581.29;0.00977475;0.00926915
33;;;;;;;4149.13;-0.092926;-2.12036e-07;-0.0922546;3;;;63.096;60.3611;74.2555;95.694;50.8929;3585.1;0.00659155;0.00810885
35;;;;;;;4149.62;-0.0978088;-2.40082e-07;-0.0971375;3;;;39.811;69.1555;108.22;128.429;57.4203;3596.56;0.00419276;0.00656116
37;;;;;;;4150.1;-0.102692;-2.73987e-07;-0.101776;3;;;25.119;80.908;158.315;177.791;62.9303;3600.74;0.0025596;0.00500843
39;;;;;;;4150.59;-0.107574;-3.07983e-07;-0.106781;3;;;15.849;96.3995;233.439;252.561;67.5617;3605.53;0.00151128;0.00365968
41;;;;;;;4151.08;-0.112457;-3.35999e-07;-0.112061;3;;;10;116.571;346.789;365.857;71.4203;3610.88;0.000870898;0.00259085
43;;;;;;;4151.57;-0.11734;-3.85132e-07;-0.116913;3;;;6.3096;143.934;519.954;539.508;74.5268;3616.56;0.000494503;0.00178636
45;;;;;;;4152.06;-0.122223;-4.26331e-07;-0.121857;3;;;3.9811;182.938;785.355;806.38;76.8875;3622.37;0.000281336;0.00120778
47;;;;;;;4152.55;-0.127106;-4.78821e-07;-0.126678;3;;;2.5119;241.639;1192.78;1217.01;78.5477;3628.43;0.000163148;0.000805327
49;;;;;;;4153.03;-0.131989;-5.13611e-07;-0.13147;3;;;1.5849;332.134;1812.76;1842.94;79.6174;3634.93;9.77896e-05;0.000533728
51;;;;;;;4153.52;-0.136871;-5.56946e-07;-0.136383;3;;;1;472.262;2758.12;2798.26;80.2837;3644.43;6.03125e-05;0.000352239
53;;;;;;;4154.01;-0.141754;-6.08521e-07;-0.141235;3;;;0.63096;691.665;4190.27;4246.97;80.627;3652.09;3.83475e-05;0.000232318
55;;;;;;;4154.5;-0.146637;-6.43921e-07;-0.146149;3;;;0.39811;1043.89;6365.13;6450.16;80.6863;3661.2;2.50908e-05;0.000152991
57;;;;;;;4154.99;-0.15152;-6.87866e-07;-0.15094;3;;;0.25119;1623.07;9674.87;9810.07;80.4767;3672.33;1.68652e-05;0.000100531
59;;;;;;;4155.48;-0.156403;-7.34863e-07;-0.155853;3;;;0.15849;2518.52;14740.3;14953.9;80.3041;3686.85;1.12626e-05;6.5917e-05
61;;;;;;;4155.96;-0.161285;-7.6355e-07;-0.160736;3;;;0.1;3964.55;22095.3;22448.2;79.8277;3706.66;7.86741e-06;4.38468e-05
63;;;;;;;4156.45;-0.166168;-8.08105e-07;-0.165649;3;;;;;;;;;;
65;;;;;;;4156.94;-0.171051;-8.47778e-07;-0.170441;3;;;;;;;;;;
67;;;;;;;4157.43;-0.175934;-8.71887e-07;-0.175293;3;;;;;;;;;;
69;;;;;;;4157.92;-0.180817;-9.10034e-07;-0.180237;3;;;;;;;;;;
71;;;;;;;4158.41;-0.185699;-9.52148e-07;-0.185181;3;;;;;;;;;;
73;;;;;;;4158.89;-0.190582;-9.70764e-07;-0.189911;3;;;;;;;;;;
75;;;;;;;4159.38;-0.195465;-9.96399e-07;-0.194763;3;;;;;;;;;;
77;;;;;;;4159.87;-0.200348;-1.01898e-06;-0.199615;3;;;;;;;;;;
79;;;;;;;4160.36;-0.205231;-1.05438e-06;-0.20459;3;;;;;;;;;;
81;;;;;;;4160.85;-0.210114;-1.06415e-06;-0.209442;3;;;;;;;;;;
83;;;;;;;4161.33;-0.214996;-1.08673e-06;-0.214264;3;;;;;;;;;;
85;;;;;;;4161.82;-0.219879;-1.10962e-06;-0.219116;3;;;;;;;;;;
87;;;;;;;4162.31;-0.224762;-1.13678e-06;-0.224091;3;;;;;;;;;;
89;;;;;;;4162.8;-0.229645;-1.14868e-06;-0.228882;3;;;;;;;;;;
91;;;;;;;4163.29;-0.234528;-1.16699e-06;-0.233826;3;;;;;;;;;;
93;;;;;;;4163.78;-0.23941;-1.18408e-06;-0.238617;3;;;;;;;;;;
95;;;;;;;4164.26;-0.244293;-1.20331e-06;-0.24353;3;;;;;;;;;;
97;;;;;;;4164.75;-0.249176;-1.22284e-06;-0.248413;3;;;;;;;;;;
99;;;;;;;4165.24;-0.254059;-1.23932e-06;-0.253296;3;;;;;;;;;;
101;;;;;;;4165.73;-0.258942;-1.26526e-06;-0.258148;3;;;;;;;;;;
103;;;;;;;4166.22;-0.263824;-1.27869e-06;-0.263;3;;;;;;;;;;
105;;;;;;;4166.71;-0.268707;-1.297e-06;-0.267883;3;;;;;;;;;;
107;;;;;;;4167.19;-0.27359;-1.32935e-06;-0.272827;3;;;;;;;;;;
109;;;;;;;4167.68;-0.278473;-1.34216e-06;-0.277618;3;;;;;;;;;;
111;;;;;;;4168.17;-0.283356;-1.3736e-06;-0.282471;3;;;;;;;;;;
113;;;;;;;4168.66;-0.288239;-1.39587e-06;-0.287323;3;;;;;;;;;;
115;;;;;;;4169.15;-0.293121;-1.41632e-06;-0.292236;3;;;;;;;;;;
117;;;;;;;4169.64;-0.298004;-1.44287e-06;-0.29715;3;;;;;;;;;;
119;;;;;;;4170.12;-0.302887;-1.46179e-06;-0.301971;3;;;;;;;;;;
121;;;;;;;4170.61;-0.30777;-1.49963e-06;-0.306885;3;;;;;;;;;;
123;;;;;;;4171.1;-0.312653;-1.51428e-06;-0.311737;3;;;;;;;;;;
125;;;;;;;4171.59;-0.317535;-1.54205e-06;-0.31665;3;;;;;;;;;;
127;;;;;;;4172.08;-0.322418;-1.56036e-06;-0.321472;3;;;;;;;;;;
129;;;;;;;4172.57;-0.327301;-1.57928e-06;-0.326385;3;;;;;;;;;;
131;;;;;;;4173.05;-0.332184;-1.59088e-06;-0.331238;3;;;;;;;;;;
133;;;;;;;4173.54;-0.337067;-1.60675e-06;-0.336151;3;;;;;;;;;;
135;;;;;;;4174.03;-0.341949;-1.6217e-06;-0.341003;3;;;;;;;;;;
137;;;;;;;4174.52;-0.346832;-1.6272e-06;-0.345886;3;;;;;;;;;;
139;;;;;;;4175.01;-0.351715;-1.63666e-06;-0.350739;3;;;;;;;;;;
141;;;;;;;4175.5;-0.356598;-1.64398e-06;-0.355591;3;;;;;;;;;;
143;;;;;;;4175.98;-0.361481;-1.64825e-06;-0.360504;3;;;;;;;;;;
145;;;;;;;4176.47;-0.366364;-1.65405e-06;-0.365387;3;;;;;;;;;;
147;;;;;;;4176.96;-0.371246;-1.6629e-06;-0.370178;3;;;;;;;;;;
149;;;;;;;4177.45;-0.376129;-1.67267e-06;-0.375092;3;;;;;;;;;;
151;;;;;;;4177.94;-0.381012;-1.6803e-06;-0.379974;3;;;;;;;;;;
153;;;;;;;4178.42;-0.385895;-1.6922e-06;-0.384827;3;;;;;;;;;;
155;;;;;;;4178.91;-0.390778;-1.70105e-06;-0.389709;3;;;;;;;;;;
157;;;;;;;4179.4;-0.39566;-1.70654e-06;-0.394531;3;;;;;;;;;;
159;;;;;;;4179.89;-0.400543;-1.72333e-06;-0.399506;3;;;;;;;;;;
161;;;;;;;4180.38;-0.405426;-1.73126e-06;-0.404327;3;;;;;;;;;;
163;;;;;;;4180.87;-0.410309;-1.74469e-06;-0.40918;3;;;;;;;;;;
165;;;;;;;4181.35;-0.415192;-1.74683e-06;-0.414032;3;;;;;;;;;;
167;;;;;;;4181.84;-0.420074;-1.76117e-06;-0.418945;3;;;;;;;;;;
169;;;;;;;4182.33;-0.424957;-1.77734e-06;-0.423828;3;;;;;;;;;;
171;;;;;;;4182.82;-0.42984;-1.78741e-06;-0.428711;3;;;;;;;;;;
173;;;;;;;4183.31;-0.434723;-1.79504e-06;-0.433624;3;;;;;;;;;;
175;;;;;;;4183.8;-0.439606;-1.80206e-06;-0.438416;3;;;;;;;;;;
177;;;;;;;4184.28;-0.444489;-1.82709e-06;-0.443237;3;;;;;;;;;;
179;;;;;;;4184.77;-0.449371;-1.83167e-06;-0.448212;3;;;;;;;;;;
181;;;;;;;4185.26;-0.454254;-1.84418e-06;-0.453033;3;;;;;;;;;;
183;;;;;;;4185.75;-0.459137;-1.87073e-06;-0.457977;3;;;;;;;;;;
185;;;;;;;4186.24;-0.46402;-1.8811e-06;-0.462769;3;;;;;;;;;;
187;;;;;;;4186.73;-0.468903;-1.8869e-06;-0.467621;3;;;;;;;;;;
189;;;;;;;4187.21;-0.473785;-1.90704e-06;-0.472534;3;;;;;;;;;;
191;;;;;;;4187.7;-0.478668;-1.9281e-06;-0.477386;3;;;;;;;;;;
193;;;;;;;4188.19;-0.483551;-1.93665e-06;-0.4823;3;;;;;;;;;;
195;;;;;;;4188.68;-0.488434;-1.95679e-06;-0.487091;3;;;;;;;;;;
197;;;;;;;4189.17;-0.493317;-1.97754e-06;-0.492035;3;;;;;;;;;;
199;;;;;;;4189.66;-0.498199;-1.98608e-06;-0.496887;3;;;;;;;;;;
201;;;;;;;4190.14;-0.503082;-2.01508e-06;-0.50177;3;;;;;;;;;;
203;;;;;;;4190.63;-0.507965;-2.034e-06;-0.506714;3;;;;;;;;;;
205;;;;;;;4191.12;-0.512848;-2.06116e-06;-0.511475;3;;;;;;;;;;
207;;;;;;;4191.61;-0.517731;-2.07764e-06;-0.516327;3;;;;;;;;;;
209;;;;;;;4192.1;-0.522614;-2.10052e-06;-0.521301;3;;;;;;;;;;
211;;;;;;;4192.58;-0.527496;-2.13226e-06;-0.526184;3;;;;;;;;;;
213;;;;;;;4193.07;-0.532379;-2.15515e-06;-0.530975;3;;;;;;;;;;
215;;;;;;;4193.56;-0.537262;-2.17346e-06;-0.535858;3;;;;;;;;;;
217;;;;;;;4194.05;-0.542145;-2.20428e-06;-0.540741;3;;;;;;;;;;
219;;;;;;;4194.54;-0.547028;-2.25037e-06;-0.545593;3;;;;;;;;;;
221;;;;;;;4195.03;-0.55191;-2.27173e-06;-0.550446;3;;;;;;;;;;
223;;;;;;;4195.51;-0.556793;-2.30438e-06;-0.555389;3;;;;;;;;;;
225;;;;;;;4196;-0.561676;-2.34467e-06;-0.560211;3;;;;;;;;;;
227;;;;;;;4196.49;-0.566559;-2.37427e-06;-0.565125;3;;;;;;;;;;
229;;;;;;;4196.98;-0.571442;-2.41241e-06;-0.569946;3;;;;;;;;;;
231;;;;;;;4197.47;-0.576324;-2.44507e-06;-0.574768;3;;;;;;;;;;
233;;;;;;;4197.96;-0.581207;-2.50793e-06;-0.579651;3;;;;;;;;;;
235;;;;;;;4198.44;-0.58609;-2.54059e-06;-0.584534;3;;;;;;;;;;
237;;;;;;;4198.93;-0.590973;-2.56927e-06;-0.589417;3;;;;;;;;;;
239;;;;;;;4199.42;-0.595856;-2.63031e-06;-0.594269;3;;;;;;;;;;
241;;;;;;;4199.91;-0.600739;-2.66266e-06;-0.599121;3;;;;;;;;;;
243;;;;;;;4200.4;-0.605621;-2.70752e-06;-0.603973;3;;;;;;;;;;
245;;;;;;;4200.89;-0.610504;-2.75543e-06;-0.608826;3;;;;;;;;;;
247;;;;;;;4201.37;-0.615387;-2.81525e-06;-0.613739;3;;;;;;;;;;
249;;;;;;;4201.86;-0.62027;-2.85431e-06;-0.618561;3;;;;;;;;;;
251;;;;;;;4202.35;-0.625153;-2.89032e-06;-0.623413;3;;;;;;;;;;
253;;;;;;;4202.84;-0.630035;-2.95441e-06;-0.628326;3;;;;;;;;;;
255;;;;;;;4203.33;-0.634918;-2.98859e-06;-0.63324;3;;;;;;;;;;
257;;;;;;;4203.82;-0.639801;-3.05176e-06;-0.638489;3;;;;;;;;;;
259;;;;;;;4204.3;-0.644684;-3.09021e-06;-0.643372;3;;;;;;;;;;
261;;;;;;;4204.79;-0.649567;-3.16681e-06;-0.648224;3;;;;;;;;;;
263;;;;;;;4205.28;-0.654449;-3.20343e-06;-0.653168;3;;;;;;;;;;
265;;;;;;;4205.77;-0.659332;-3.24463e-06;-0.658051;3;;;;;;;;;;
267;;;;;;;4206.26;-0.664215;-3.30414e-06;-0.662903;3;;;;;;;;;;
269;;;;;;;4206.75;-0.669098;-3.34259e-06;-0.667755;3;;;;;;;;;;
271;;;;;;;4207.23;-0.673981;-3.38806e-06;-0.672607;3;;;;;;;;;;
273;;;;;;;4207.72;-0.678864;-3.45306e-06;-0.677551;3;;;;;;;;;;
275;;;;;;;4208.21;-0.683746;-3.50464e-06;-0.682373;3;;;;;;;;;;
277;;;;;;;4208.7;-0.688629;-3.56201e-06;-0.687225;3;;;;;;;;;;
279;;;;;;;4209.19;-0.693512;-3.60413e-06;-0.692108;3;;;;;;;;;;
281;;;;;;;4209.67;-0.698395;-3.66821e-06;-0.697052;3;;;;;;;;;;
283;;;;;;;4210.16;-0.703278;-3.72589e-06;-0.701904;3;;;;;;;;;;
285;;;;;;;4210.65;-0.70816;-3.77777e-06;-0.706787;3;;;;;;;;;;
287;;;;;;;4211.14;-0.713043;-3.84003e-06;-0.711731;3;;;;;;;;;;
289;;;;;;;4211.63;-0.717926;-3.90472e-06;-0.716583;3;;;;;;;;;;
291;;;;;;;4212.12;-0.722809;-3.94623e-06;-0.721405;3;;;;;;;;;;
293;;;;;;;4212.6;-0.727692;-4.02161e-06;-0.726318;3;;;;;;;;;;
295;;;;;;;4213.09;-0.732574;-4.08386e-06;-0.731201;3;;;;;;;;;;
297;;;;;;;4213.58;-0.737457;-4.13788e-06;-0.736053;3;;;;;;;;;;
299;;;;;;;4214.07;-0.74234;-4.2099e-06;-0.740906;3;;;;;;;;;;
301;;;;;;;4214.56;-0.747223;-4.26941e-06;-0.745911;3;;;;;;;;;;
303;;;;;;;4215.05;-0.752106;-4.3457e-06;-0.751343;3;;;;;;;;;;
305;;;;;;;4215.53;-0.756989;-4.42596e-06;-0.75592;3;;;;;;;;;;
307;;;;;;;4216.02;-0.761871;-4.48944e-06;-0.760803;3;;;;;;;;;;
309;;;;;;;4216.51;-0.766754;-4.56238e-06;-0.766296;3;;;;;;;;;;
311;;;;;;;4217;-0.771637;-4.64478e-06;-0.770569;3;;;;;;;;;;
313;;;;;;;4217.49;-0.77652;-4.71191e-06;-0.775146;3;;;;;;;;;;
315;;;;;;;4217.98;-0.781403;-4.80652e-06;-0.78064;3;;;;;;;;;;
317;;;;;;;4218.46;-0.786285;-4.89197e-06;-0.785217;3;;;;;;;;;;
319;;;;;;;4218.95;-0.791168;-4.97437e-06;-0.7901;3;;;;;;;;;;
321;;;;;;;4219.44;-0.796051;-5.07507e-06;-0.794983;3;;;;;;;;;;
323;;;;;;;4219.93;-0.800934;-5.19714e-06;-0.800171;3;;;;;;;;;;
325;;;;;;;4220.42;-0.805817;-5.3009e-06;-0.805054;3;;;;;;;;;;
327;;;;;;;4220.91;-0.810699;-5.40771e-06;-0.809937;3;;;;;;;;;;
329;;;;;;;4221.39;-0.815582;-5.51758e-06;-0.814514;3;;;;;;;;;;
331;;;;;;;4221.88;-0.820465;-5.6366e-06;-0.820007;3;;;;;;;;;;
333;;;;;;;4222.37;-0.825348;-5.76172e-06;-0.82489;3;;;;;;;;;;
335;;;;;;;4222.86;-0.830231;-5.87769e-06;-0.829163;3;;;;;;;;;;
337;;;;;;;4223.35;-0.835114;-6.02112e-06;-0.834351;3;;;;;;;;;;
339;;;;;;;4223.84;-0.839996;-6.14929e-06;-0.839233;3;;;;;;;;;;
341;;;;;;;4224.32;-0.844879;-6.29272e-06;-0.844116;3;;;;;;;;;;
343;;;;;;;4224.81;-0.849762;-6.44836e-06;-0.849304;3;;;;;;;;;;
345;;;;;;;4225.3;-0.854645;-6.5979e-06;-0.853882;3;;;;;;;;;;
347;;;;;;;4225.79;-0.859528;-6.7688e-06;-0.85907;3;;;;;;;;;;
349;;;;;;;4226.28;-0.86441;-7.00684e-06;-0.863342;3;;;;;;;;;;
351;;;;;;;4226.76;-0.869293;-7.19299e-06;-0.86853;3;;;;;;;;;;
353;;;;;;;4227.25;-0.874176;-7.38525e-06;-0.873108;3;;;;;;;;;;
355;;;;;;;4227.74;-0.879059;-7.59277e-06;-0.877991;3;;;;;;;;;;
357;;;;;;;4228.23;-0.883942;-7.83691e-06;-0.883179;3;;;;;;;;;;
359;;;;;;;4228.72;-0.888824;-8.09326e-06;-0.888672;3;;;;;;;;;;
361;;;;;;;4229.21;-0.893707;-8.35266e-06;-0.892944;3;;;;;;;;;;
363;;;;;;;4229.69;-0.89859;-8.64258e-06;-0.897522;3;;;;;;;;;;
365;;;;;;;4230.18;-0.89859;-6.90613e-06;-0.897522;3;;;;;;;;;;
367;;;;;;;4230.67;-0.893707;-5.08118e-06;-0.892639;3;;;;;;;;;;
369;;;;;;;4231.16;-0.888824;-3.9978e-06;-0.888367;3;;;;;;;;;;
371;;;;;;;4231.65;-0.883942;-3.24005e-06;-0.883179;3;;;;;;;;;;
373;;;;;;;4232.14;-0.879059;-2.64893e-06;-0.877991;3;;;;;;;;;;
375;;;;;;;4232.62;-0.874176;-2.20032e-06;-0.873413;3;;;;;;;;;;
377;;;;;;;4233.11;-0.869293;-1.8222e-06;-0.868225;3;;;;;;;;;;
379;;;;;;;4233.6;-0.86441;-1.52863e-06;-0.863953;3;;;;;;;;;;
381;;;;;;;4234.09;-0.859528;-1.23627e-06;-0.858765;3;;;;;;;;;;
383;;;;;;;4234.58;-0.854645;-1.01898e-06;-0.853271;3;;;;;;;;;;
385;;;;;;;4235.07;-0.849762;-8.19397e-07;-0.848694;3;;;;;;;;;;
387;;;;;;;4235.55;-0.844879;-6.57959e-07;-0.844421;3;;;;;;;;;;
389;;;;;;;4236.04;-0.839996;-4.79431e-07;-0.838928;3;;;;;;;;;;
391;;;;;;;4236.53;-0.835114;-3.12195e-07;-0.834351;3;;;;;;;;;;
393;;;;;;;4237.02;-0.830231;-1.96838e-07;-0.829773;3;;;;;;;;;;
395;;;;;;;4237.51;-0.825348;-8.56323e-08;-0.824585;3;;;;;;;;;;
397;;;;;;;4238;-0.820465;3.95508e-08;-0.820007;3;;;;;;;;;;
399;;;;;;;4238.48;-0.815582;1.32141e-07;-0.81543;3;;;;;;;;;;
401;;;;;;;4238.97;-0.810699;2.09351e-07;-0.809937;3;;;;;;;;;;
403;;;;;;;4239.46;-0.805817;3.15552e-07;-0.805359;3;;;;;;;;;;
405;;;;;;;4239.95;-0.800934;4.06189e-07;-0.800171;3;;;;;;;;;;
407;;;;;;;4240.44;-0.796051;4.67224e-07;-0.795593;3;;;;;;;;;;
409;;;;;;;4240.92;-0.791168;5.45044e-07;-0.7901;3;;;;;;;;;;
411;;;;;;;4241.41;-0.786285;6.06995e-07;-0.785217;3;;;;;;;;;;
413;;;;;;;4241.9;-0.781403;6.46057e-07;-0.78064;3;;;;;;;;;;
415;;;;;;;4242.39;-0.77652;7.14417e-07;-0.775757;3;;;;;;;;;;
417;;;;;;;4242.88;-0.771637;7.70874e-07;-0.771179;3;;;;;;;;;;
419;;;;;;;4243.37;-0.766754;8.17261e-07;-0.765381;3;;;;;;;;;;
421;;;;;;;4243.85;-0.761871;8.62427e-07;-0.761108;3;;;;;;;;;;
423;;;;;;;4244.34;-0.756989;8.95081e-07;-0.756226;3;;;;;;;;;;
425;;;;;;;4244.83;-0.752106;9.49097e-07;-0.751648;3;;;;;;;;;;
427;;;;;;;4245.32;-0.747223;9.90295e-07;-0.746002;3;;;;;;;;;;
429;;;;;;;4245.81;-0.74234;1.01654e-06;-0.74115;3;;;;;;;;;;
431;;;;;;;4246.3;-0.737457;1.06689e-06;-0.736328;3;;;;;;;;;;
433;;;;;;;4246.78;-0.732574;1.091e-06;-0.731476;3;;;;;;;;;;
435;;;;;;;4247.27;-0.727692;1.11115e-06;-0.726593;3;;;;;;;;;;
437;;;;;;;4247.76;-0.722809;1.14471e-06;-0.721649;3;;;;;;;;;;
439;;;;;;;4248.25;-0.717926;1.17432e-06;-0.716797;3;;;;;;;;;;
441;;;;;;;4248.74;-0.713043;1.20331e-06;-0.711914;3;;;;;;;;;;
443;;;;;;;4249.23;-0.70816;1.21582e-06;-0.707062;3;;;;;;;;;;
445;;;;;;;4249.71;-0.703278;1.25366e-06;-0.702179;3;;;;;;;;;;
447;;;;;;;4250.2;-0.698395;1.27258e-06;-0.697296;3;;;;;;;;;;
449;;;;;;;4250.69;-0.693512;1.26587e-06;-0.692505;3;;;;;;;;;;
451;;;;;;;4251.18;-0.688629;1.28967e-06;-0.6875;3;;;;;;;;;;
453;;;;;;;4251.67;-0.683746;1.30707e-06;-0.682648;3;;;;;;;;;;
455;;;;;;;4252.16;-0.678864;1.29089e-06;-0.677765;3;;;;;;;;;;
457;;;;;;;4252.64;-0.673981;1.328125E-06;-0.672852;3;;;;;;;;;;
459;;;;;;;4253.13;-0.669098;1.33392e-06;-0.667999;3;;;;;;;;;;
461;;;;;;;4253.62;-0.664215;1.34399e-06;-0.663208;3;;;;;;;;;;
463;;;;;;;4254.11;-0.659332;1.33179e-06;-0.658234;3;;;;;;;;;;
465;;;;;;;4254.6;-0.654449;1.34247e-06;-0.653381;3;;;;;;;;;;
467;;;;;;;4255.09;-0.649567;1.3504e-06;-0.648468;3;;;;;;;;;;
469;;;;;;;4255.57;-0.644684;1.32751e-06;-0.643646;3;;;;;;;;;;
471;;;;;;;4256.06;-0.639801;1.33575e-06;-0.638672;3;;;;;;;;;;
473;;;;;;;4256.55;-0.634918;1.32843e-06;-0.63385;3;;;;;;;;;;
475;;;;;;;4257.04;-0.630035;1.32874e-06;-0.628876;3;;;;;;;;;;
477;;;;;;;4257.53;-0.625153;1.3147e-06;-0.624023;3;;;;;;;;;;
479;;;;;;;4258.01;-0.62027;1.31714e-06;-0.619141;3;;;;;;;;;;
481;;;;;;;4258.5;-0.615387;1.31012e-06;-0.614288;3;;;;;;;;;;
483;;;;;;;4258.99;-0.610504;1.28815e-06;-0.609436;3;;;;;;;;;;
485;;;;;;;4259.48;-0.605621;1.27716e-06;-0.604584;3;;;;;;;;;;
487;;;;;;;4259.97;-0.600739;1.26587e-06;-0.59964;3;;;;;;;;;;
489;;;;;;;4260.46;-0.595856;1.23718e-06;-0.594818;3;;;;;;;;;;
491;;;;;;;4260.94;-0.590973;1.22528e-06;-0.589935;3;;;;;;;;;;
493;;;;;;;4261.43;-0.58609;1.21338e-06;-0.585114;3;;;;;;;;;;
495;;;;;;;4261.92;-0.581207;1.2085e-06;-0.58017;3;;;;;;;;;;
497;;;;;;;4262.41;-0.576324;1.18591e-06;-0.575287;3;;;;;;;;;;
499;;;;;;;4262.9;-0.571442;1.1731e-06;-0.570374;3;;;;;;;;;;
501;;;;;;;4263.39;-0.566559;1.15753e-06;-0.565552;3;;;;;;;;;;
503;;;;;;;4263.87;-0.561676;1.13098e-06;-0.560699;3;;;;;;;;;;
505;;;;;;;4264.36;-0.556793;1.11115e-06;-0.555756;3;;;;;;;;;;
507;;;;;;;4264.85;-0.55191;1.0968e-06;-0.550903;3;;;;;;;;;;
509;;;;;;;4265.34;-0.547028;1.07056e-06;-0.546112;3;;;;;;;;;;
511;;;;;;;4265.83;-0.542145;1.05194e-06;-0.541138;3;;;;;;;;;;
513;;;;;;;4266.32;-0.537262;1.04492e-06;-0.536285;3;;;;;;;;;;
515;;;;;;;4266.8;-0.532379;1.03394e-06;-0.531372;3;;;;;;;;;;
517;;;;;;;4267.29;-0.527496;1.00616e-06;-0.526489;3;;;;;;;;;;
519;;;;;;;4267.78;-0.522614;9.89685e-07;-0.521667;3;;;;;;;;;;
521;;;;;;;4268.27;-0.517731;9.85107e-07;-0.516815;3;;;;;;;;;;
523;;;;;;;4268.76;-0.512848;9.75342e-07;-0.511932;3;;;;;;;;;;
525;;;;;;;4269.25;-0.507965;9.552e-07;-0.507019;3;;;;;;;;;;
527;;;;;;;4269.73;-0.503082;9.52454e-07;-0.502167;3;;;;;;;;;;
529;;;;;;;4270.22;-0.498199;9.45129e-07;-0.497314;3;;;;;;;;;;
531;;;;;;;4270.71;-0.493317;9.31702e-07;-0.492432;3;;;;;;;;;;
533;;;;;;;4271.2;-0.488434;9.198e-07;-0.487518;3;;;;;;;;;;
535;;;;;;;4271.69;-0.483551;9.17053e-07;-0.482666;3;;;;;;;;;;
537;;;;;;;4272.17;-0.478668;9.18884e-07;-0.477753;3;;;;;;;;;;
539;;;;;;;4272.66;-0.473785;8.99048e-07;-0.4729;3;;;;;;;;;;
541;;;;;;;4273.15;-0.468903;9.13696e-07;-0.468079;3;;;;;;;;;;
543;;;;;;;4273.64;-0.46402;9.0332e-07;-0.463165;3;;;;;;;;;;
545;;;;;;;4274.13;-0.459137;8.97827e-07;-0.458252;3;;;;;;;;;;
547;;;;;;;4274.62;-0.454254;8.94775e-07;-0.453339;3;;;;;;;;;;
549;;;;;;;4275.1;-0.449371;9.0271e-07;-0.448486;3;;;;;;;;;;
551;;;;;;;4275.59;-0.444489;9.06677e-07;-0.443695;3;;;;;;;;;;
553;;;;;;;4276.08;-0.439606;8.90198e-07;-0.438812;3;;;;;;;;;;
555;;;;;;;4276.57;-0.434723;8.9325e-07;-0.433868;3;;;;;;;;;;
557;;;;;;;4277.06;-0.42984;8.96912e-07;-0.429047;3;;;;;;;;;;
559;;;;;;;4277.55;-0.424957;8.90198e-07;-0.424225;3;;;;;;;;;;
561;;;;;;;4278.03;-0.420074;8.95081e-07;-0.41922;3;;;;;;;;;;
563;;;;;;;4278.52;-0.415192;8.96912e-07;-0.414459;3;;;;;;;;;;
565;;;;;;;4279.01;-0.410309;8.93555e-07;-0.409515;3;;;;;;;;;;
567;;;;;;;4279.5;-0.405426;8.97217e-07;-0.404694;3;;;;;;;;;;
569;;;;;;;4279.99;-0.400543;9.03625e-07;-0.399811;3;;;;;;;;;;
571;;;;;;;4280.48;-0.39566;9.06677e-07;-0.394958;3;;;;;;;;;;
573;;;;;;;4280.96;-0.390778;9.01184e-07;-0.390045;3;;;;;;;;;;
575;;;;;;;4281.45;-0.385895;9.01184e-07;-0.385162;3;;;;;;;;;;
577;;;;;;;4281.94;-0.381012;9.10645e-07;-0.38031;3;;;;;;;;;;
579;;;;;;;4282.43;-0.376129;9.1156e-07;-0.375458;3;;;;;;;;;;
581;;;;;;;4282.92;-0.371246;9.14917e-07;-0.370483;3;;;;;;;;;;
583;;;;;;;4283.41;-0.366364;9.1095e-07;-0.365631;3;;;;;;;;;;
585;;;;;;;4283.89;-0.361481;9.24377e-07;-0.360809;3;;;;;;;;;;
587;;;;;;;4284.38;-0.356598;9.21631e-07;-0.355927;3;;;;;;;;;;
589;;;;;;;4284.87;-0.351715;9.19495e-07;-0.350983;3;;;;;;;;;;
591;;;;;;;4285.36;-0.346832;9.27124e-07;-0.346069;3;;;;;;;;;;
593;;;;;;;4285.85;-0.341949;9.32007e-07;-0.341278;3;;;;;;;;;;
595;;;;;;;4286.34;-0.337067;9.26208e-07;-0.336426;3;;;;;;;;;;
597;;;;;;;4286.82;-0.332184;9.39026e-07;-0.331573;3;;;;;;;;;;
599;;;;;;;4287.31;-0.327301;9.39636e-07;-0.32663;3;;;;;;;;;;
601;;;;;;;4287.8;-0.322418;9.46655e-07;-0.321838;3;;;;;;;;;;
603;;;;;;;4288.29;-0.317535;9.48486e-07;-0.316956;3;;;;;;;;;;
605;;;;;;;4288.78;-0.312653;9.56421e-07;-0.312042;3;;;;;;;;;;
607;;;;;;;4289.26;-0.30777;9.63135e-07;-0.30719;3;;;;;;;;;;
609;;;;;;;4289.75;-0.302887;9.68323e-07;-0.302338;3;;;;;;;;;;
611;;;;;;;4290.24;-0.298004;9.83887e-07;-0.297455;3;;;;;;;;;;
613;;;;;;;4290.73;-0.293121;9.82971e-07;-0.29248;3;;;;;;;;;;
615;;;;;;;4291.22;-0.288239;9.86633e-07;-0.287628;3;;;;;;;;;;
617;;;;;;;4291.71;-0.283356;1.00525e-06;-0.282837;3;;;;;;;;;;
619;;;;;;;4292.19;-0.278473;1.02356e-06;-0.277954;3;;;;;;;;;;
621;;;;;;;4292.68;-0.27359;1.026e-06;-0.273132;3;;;;;;;;;;
623;;;;;;;4293.17;-0.268707;1.03119e-06;-0.26825;3;;;;;;;;;;
625;;;;;;;4293.66;-0.263824;1.06384e-06;-0.263306;3;;;;;;;;;;
627;;;;;;;4294.15;-0.258942;1.07239e-06;-0.258423;3;;;;;;;;;;
629;;;;;;;4294.64;-0.254059;1.08154e-06;-0.253571;3;;;;;;;;;;
631;;;;;;;4295.12;-0.249176;1.10657e-06;-0.248657;3;;;;;;;;;;
633;;;;;;;4295.61;-0.244293;1.13159e-06;-0.243805;3;;;;;;;;;;
635;;;;;;;4296.1;-0.23941;1.15479e-06;-0.238922;3;;;;;;;;;;
637;;;;;;;4296.59;-0.234528;1.16333e-06;-0.234039;3;;;;;;;;;;
639;;;;;;;4297.08;-0.229645;1.19751e-06;-0.229156;3;;;;;;;;;;
641;;;;;;;4297.57;-0.224762;1.22803e-06;-0.224335;3;;;;;;;;;;
643;;;;;;;4298.05;-0.219879;1.25427e-06;-0.219452;3;;;;;;;;;;
645;;;;;;;4298.54;-0.214996;1.29181e-06;-0.2146;3;;;;;;;;;;
647;;;;;;;4299.03;-0.210114;1.32355e-06;-0.209656;3;;;;;;;;;;
649;;;;;;;4299.52;-0.205231;1.36139e-06;-0.204834;3;;;;;;;;;;
651;;;;;;;4300.01;-0.200348;1.38336e-06;-0.199951;3;;;;;;;;;;
653;;;;;;;4300.5;-0.195465;1.42578e-06;-0.195038;3;;;;;;;;;;
655;;;;;;;4300.98;-0.190582;1.47461e-06;-0.190186;3;;;;;;;;;;
657;;;;;;;4301.47;-0.185699;1.49628e-06;-0.185394;3;;;;;;;;;;
659;;;;;;;4301.96;-0.180817;1.5332e-06;-0.180573;3;;;;;;;;;;
661;;;;;;;4302.45;-0.175934;1.57837e-06;-0.175629;3;;;;;;;;;;
663;;;;;;;4302.94;-0.171051;1.6037e-06;-0.170776;3;;;;;;;;;;
665;;;;;;;4303.43;-0.166168;1.63086e-06;-0.165924;3;;;;;;;;;;
667;;;;;;;4303.91;-0.161285;1.66107e-06;-0.16098;3;;;;;;;;;;
669;;;;;;;4304.4;-0.156403;1.68701e-06;-0.156158;3;;;;;;;;;;
671;;;;;;;4304.89;-0.15152;1.70319e-06;-0.151215;3;;;;;;;;;;
673;;;;;;;4305.38;-0.146637;1.71906e-06;-0.146393;3;;;;;;;;;;
675;;;;;;;4305.87;-0.141754;1.72974e-06;-0.141571;3;;;;;;;;;;
677;;;;;;;4306.35;-0.136871;1.74042e-06;-0.136566;3;;;;;;;;;;
679;;;;;;;4306.84;-0.131989;1.74042e-06;-0.131775;3;;;;;;;;;;
681;;;;;;;4307.33;-0.127106;1.75873e-06;-0.126862;3;;;;;;;;;;
683;;;;;;;4307.82;-0.122223;1.76971e-06;-0.12204;3;;;;;;;;;;
685;;;;;;;4308.31;-0.11734;1.74866e-06;-0.1171875;3;;;;;;;;;;
687;;;;;;;4308.8;-0.112457;1.7511e-06;-0.112305;3;;;;;;;;;;
689;;;;;;;4309.28;-0.107574;1.75201e-06;-0.107391;3;;;;;;;;;;
691;;;;;;;4309.77;-0.102692;1.73401e-06;-0.1026;3;;;;;;;;;;
693;;;;;;;4310.26;-0.0978088;1.716e-06;-0.0976868;3;;;;;;;;;;
695;;;;;;;4310.75;-0.092926;1.7157e-06;-0.0927124;3;;;;;;;;;;
697;;;;;;;4311.24;-0.0880432;1.70898e-06;-0.0878601;3;;;;;;;;;;
699;;;;;;;4311.73;-0.0831604;1.70105e-06;-0.0831299;3;;;;;;;;;;
701;;;;;;;4312.21;-0.0782776;1.69189e-06;-0.078186;3;;;;;;;;;;
703;;;;;;;4312.7;-0.0733948;1.69037e-06;-0.0733337;3;;;;;;;;;;
705;;;;;;;4313.19;-0.068512;1.6748e-06;-0.0684204;3;;;;;;;;;;
707;;;;;;;4313.68;-0.0636292;1.66656e-06;-0.0635071;3;;;;;;;;;;
709;;;;;;;4314.17;-0.0587463;1.6687e-06;-0.0586548;3;;;;;;;;;;
711;;;;;;;4314.66;-0.0538635;1.6687e-06;-0.053772;3;;;;;;;;;;
713;;;;;;;4315.14;-0.0489807;1.65466e-06;-0.0486359;3;;;;;;;;;;
715;;;;;;;4315.63;-0.0440979;1.65985e-06;-0.0437653;3;;;;;;;;;;
717;;;;;;;4316.12;-0.0392151;1.66351e-06;-0.0388824;3;;;;;;;;;;
719;;;;;;;4316.61;-0.0343323;1.65253e-06;-0.0339691;3;;;;;;;;;;
721;;;;;;;4317.1;-0.0294495;1.65161e-06;-0.0291412;3;;;;;;;;;;
723;;;;;;;4317.59;-0.0245667;1.65741e-06;-0.0242065;3;;;;;;;;;;
725;;;;;;;4318.07;-0.0196838;1.65283e-06;-0.0194153;3;;;;;;;;;;
727;;;;;;;4318.56;-0.014801;1.65894e-06;-0.0145233;3;;;;;;;;;;
729;;;;;;;4319.05;-0.00991821;1.66168e-06;-0.00961914;3;;;;;;;;;;
731;;;;;;;4319.54;-0.0050354;1.66962e-06;-0.00474243;3;;;;;;;;;;
733;;;;;;;4320.03;-0.000152588;1.6626e-06;8.8501e-05;3;;;;;;;;;;
735;;;;;;;4320.51;0.00473022;1.6748e-06;0.00503235;3;;;;;;;;;;
737;;;;;;;4321;0.00961304;1.67786e-06;0.0098877;3;;;;;;;;;;
739;;;;;;;4321.49;0.0144958;1.68823e-06;0.0147644;3;;;;;;;;;;
741;;;;;;;4321.98;0.0193787;1.69495e-06;0.0196411;3;;;;;;;;;;
743;;;;;;;4322.47;0.0242615;1.70746e-06;0.0245331;3;;;;;;;;;;
745;;;;;;;4322.96;0.0291443;1.71234e-06;0.0294617;3;;;;;;;;;;
747;;;;;;;4323.44;0.0340271;1.71265e-06;0.034314;3;;;;;;;;;;
749;;;;;;;4323.93;0.0389099;1.7276e-06;0.0391541;3;;;;;;;;;;
751;;;;;;;4324.42;0.0437927;1.74103e-06;0.0440338;3;;;;;;;;;;
753;;;;;;;4324.91;0.0486755;1.75537e-06;0.0488953;3;;;;;;;;;;
755;;;;;;;4325.4;0.0535583;1.75751e-06;0.0534973;3;;;;;;;;;;
757;;;;;;;4325.89;0.0584412;1.7807e-06;0.0583801;3;;;;;;;;;;
759;;;;;;;4326.37;0.063324;1.79962e-06;0.0632629;3;;;;;;;;;;
761;;;;;;;4326.86;0.0682068;1.80939e-06;0.0681458;3;;;;;;;;;;
763;;;;;;;4327.35;0.0730896;1.83777e-06;0.0730286;3;;;;;;;;;;
765;;;;;;;4327.84;0.0779724;1.8573e-06;0.0779114;3;;;;;;;;;;
767;;;;;;;4328.33;0.0828552;1.87378e-06;0.0827637;3;;;;;;;;;;
769;;;;;;;4328.82;0.087738;1.89453e-06;0.087677;3;;;;;;;;;;
771;;;;;;;4329.3;0.0926208;1.93359e-06;0.0925903;3;;;;;;;;;;
773;;;;;;;4329.79;0.0975037;1.96289e-06;0.0973511;3;;;;;;;;;;
775;;;;;;;4330.28;0.102386;1.98975e-06;0.102325;3;;;;;;;;;;
777;;;;;;;4330.77;0.107269;2.03522e-06;0.107178;3;;;;;;;;;;
779;;;;;;;4331.26;0.112152;2.08405e-06;0.112;3;;;;;;;;;;
781;;;;;;;4331.75;0.107269;1.71478e-06;0.107239;3;;;;;;;;;;
783;;;;;;;4332.23;0.102386;1.51062e-06;0.102386;3;;;;;;;;;;
785;;;;;;;4332.72;0.0975037;1.36444e-06;0.0974426;3;;;;;;;;;;
787;;;;;;;4333.21;0.0926208;1.24481e-06;0.0925903;3;;;;;;;;;;
789;;;;;;;4333.7;0.087738;1.13831e-06;0.087738;3;;;;;;;;;;
791;;;;;;;4334.19;0.0828552;1.05164e-06;0.0828247;3;;;;;;;;;;
793;;;;;;;4334.68;0.0779724;9.74426e-07;0.0779419;3;;;;;;;;;;
795;;;;;;;4335.16;0.0730896;9.06982e-07;0.072998;3;;;;;;;;;;
797;;;;;;;4335.65;0.0682068;8.40454e-07;0.0682678;3;;;;;;;;;;
799;;;;;;;4336.14;0.063324;7.901e-07;0.0633545;3;;;;;;;;;;
801;;;;;;;4336.63;0.0584412;7.38525e-07;0.0584412;3;;;;;;;;;;
803;;;;;;;4337.12;0.0535583;6.91528e-07;0.0536194;3;;;;;;;;;;
805;;;;;;;4337.6;0.0486755;6.43005e-07;0.0489319;3;;;;;;;;;;
807;;;;;;;4338.09;0.0437927;6.0791e-07;0.0440552;3;;;;;;;;;;
809;;;;;;;4338.58;0.0389099;5.65796e-07;0.0392151;3;;;;;;;;;;
811;;;;;;;4339.07;0.0340271;5.25818e-07;0.034317;3;;;;;;;;;;
813;;;;;;;4339.56;0.0291443;4.94385e-07;0.0294312;3;;;;;;;;;;
815;;;;;;;4340.05;0.0242615;4.63257e-07;0.02453;3;;;;;;;;;;
817;;;;;;;4340.53;0.0193787;4.23584e-07;0.0197083;3;;;;;;;;;;
819;;;;;;;4341.02;0.0144958;3.88489e-07;0.0147705;3;;;;;;;;;;
821;;;;;;;4341.51;0.00961304;3.68042e-07;0.00987549;3;;;;;;;;;;
823;;;;;;;4342;0.00473022;3.26843e-07;0.00504761;3;;;;;;;;;;
825;;;;;;;4342.49;-0.000152588;3.00293e-07;0.000112915;3;;;;;;;;;;
827;;;;;;;4342.98;-0.0050354;2.79541e-07;-0.00476074;3;;;;;;;;;;
829;;;;;;;4343.46;-0.00991821;2.44141e-07;-0.00967407;3;;;;;;;;;;
831;;;;;;;;;;;;;;;;;;;;;
833;;;;;;;;;;;;;;;;;;;;;
835;;;;;;;;;;;;;;;;;;;;;
837;;;;;;;;;;;;;;;;;;;;;
839;;;;;;;;;;;;;;;;;;;;;
841;;;;;;;;;;;;;;;;;;;;;
843;;;;;;;;;;;;;;;;;;;;;
845;;;;;;;;;;;;;;;;;;;;;
847;;;;;;;;;;;;;;;;;;;;;
849;;;;;;;;;;;;;;;;;;;;;
851;;;;;;;;;;;;;;;;;;;;;
853;;;;;;;;;;;;;;;;;;;;;
855;;;;;;;;;;;;;;;;;;;;;
857;;;;;;;;;;;;;;;;;;;;;
859;;;;;;;;;;;;;;;;;;;;;
861;;;;;;;;;;;;;;;;;;;;;
863;;;;;;;;;;;;;;;;;;;;;
865;;;;;;;;;;;;;;;;;;;;;
867;;;;;;;;;;;;;;;;;;;;;
869;;;;;;;;;;;;;;;;;;;;;
871;;;;;;;;;;;;;;;;;;;;;
873;;;;;;;;;;;;;;;;;;;;;
875;;;;;;;;;;;;;;;;;;;;;
877;;;;;;;;;;;;;;;;;;;;;
879;;;;;;;;;;;;;;;;;;;;;
881;;;;;;;;;;;;;;;;;;;;;
883;;;;;;;;;;;;;;;;;;;;;
885;;;;;;;;;;;;;;;;;;;;;
887;;;;;;;;;;;;;;;;;;;;;
889;;;;;;;;;;;;;;;;;;;;;
891;;;;;;;;;;;;;;;;;;;;;
893;;;;;;;;;;;;;;;;;;;;;
895;;;;;;;;;;;;;;;;;;;;;
897;;;;;;;;;;;;;;;;;;;;;
899;;;;;;;;;;;;;;;;;;;;;
901;;;;;;;;;;;;;;;;;;;;;
903;;;;;;;;;;;;;;;;;;;;;
905;;;;;;;;;;;;;;;;;;;;;
907;;;;;;;;;;;;;;;;;;;;;
909;;;;;;;;;;;;;;;;;;;;;
911;;;;;;;;;;;;;;;;;;;;;
913;;;;;;;;;;;;;;;;;;;;;
915;;;;;;;;;;;;;;;;;;;;;
917;;;;;;;;;;;;;;;;;;;;;
919;;;;;;;;;;;;;;;;;;;;;
921;;;;;;;;;;;;;;;;;;;;;
923;;;;;;;;;;;;;;;;;;;;;
925;;;;;;;;;;;;;;;;;;;;;
927;;;;;;;;;;;;;;;;;;;;;
929;;;;;;;;;;;;;;;;;;;;;
931;;;;;;;;;;;;;;;;;;;;;
933;;;;;;;;;;;;;;;;;;;;;
935;;;;;;;;;;;;;;;;;;;;;
937;;;;;;;;;;;;;;;;;;;;;
939;;;;;;;;;;;;;;;;;;;;;
941;;;;;;;;;;;;;;;;;;;;;
943;;;;;;;;;;;;;;;;;;;;;
945;;;;;;;;;;;;;;;;;;;;;
947;;;;;;;;;;;;;;;;;;;;;
949;;;;;;;;;;;;;;;;;;;;;
951;;;;;;;;;;;;;;;;;;;;;
953;;;;;;;;;;;;;;;;;;;;;
955;;;;;;;;;;;;;;;;;;;;;
957;;;;;;;;;;;;;;;;;;;;;
959;;;;;;;;;;;;;;;;;;;;;
961;;;;;;;;;;;;;;;;;;;;;
963;;;;;;;;;;;;;;;;;;;;;
965;;;;;;;;;;;;;;;;;;;;;
967;;;;;;;;;;;;;;;;;;;;;
969;;;;;;;;;;;;;;;;;;;;;
971;;;;;;;;;;;;;;;;;;;;;
973;;;;;;;;;;;;;;;;;;;;;
975;;;;;;;;;;;;;;;;;;;;;
977;;;;;;;;;;;;;;;;;;;;;
979;;;;;;;;;;;;;;;;;;;;;
981;;;;;;;;;;;;;;;;;;;;;
983;;;;;;;;;;;;;;;;;;;;;
985;;;;;;;;;;;;;;;;;;;;;
987;;;;;;;;;;;;;;;;;;;;;
989;;;;;;;;;;;;;;;;;;;;;
991;;;;;;;;;;;;;;;;;;;;;
993;;;;;;;;;;;;;;;;;;;;;
995;;;;;;;;;;;;;;;;;;;;;
997;;;;;;;;;;;;;;;;;;;;;
999;;;;;;;;;;;;;;;;;;;;;
1001;;;;;;;;;;;;;;;;;;;;;
1003;;;;;;;;;;;;;;;;;;;;;
1005;;;;;;;;;;;;;;;;;;;;;
1007;;;;;;;;;;;;;;;;;;;;;
1009;;;;;;;;;;;;;;;;;;;;;
1011;;;;;;;;;;;;;;;;;;;;;
1013;;;;;;;;;;;;;;;;;;;;;
1015;;;;;;;;;;;;;;;;;;;;;
1017;;;;;;;;;;;;;;;;;;;;;
1019;;;;;;;;;;;;;;;;;;;;;
1021;;;;;;;;;;;;;;;;;;;;;
1023;;;;;;;;;;;;;;;;;;;;;
1025;;;;;;;;;;;;;;;;;;;;;
1027;;;;;;;;;;;;;;;;;;;;;
1029;;;;;;;;;;;;;;;;;;;;;
1031;;;;;;;;;;;;;;;;;;;;;
1033;;;;;;;;;;;;;;;;;;;;;
1035;;;;;;;;;;;;;;;;;;;;;
1037;;;;;;;;;;;;;;;;;;;;;
1039;;;;;;;;;;;;;;;;;;;;;
1041;;;;;;;;;;;;;;;;;;;;;
1043;;;;;;;;;;;;;;;;;;;;;
1045;;;;;;;;;;;;;;;;;;;;;
1047;;;;;;;;;;;;;;;;;;;;;
1049;;;;;;;;;;;;;;;;;;;;;
1051;;;;;;;;;;;;;;;;;;;;;
1053;;;;;;;;;;;;;;;;;;;;;
1055;;;;;;;;;;;;;;;;;;;;;
1057;;;;;;;;;;;;;;;;;;;;;
1059;;;;;;;;;;;;;;;;;;;;;
1061;;;;;;;;;;;;;;;;;;;;;
1063;;;;;;;;;;;;;;;;;;;;;
1065;;;;;;;;;;;;;;;;;;;;;
1067;;;;;;;;;;;;;;;;;;;;;
1069;;;;;;;;;;;;;;;;;;;;;
1071;;;;;;;;;;;;;;;;;;;;;
1073;;;;;;;;;;;;;;;;;;;;;
1075;;;;;;;;;;;;;;;;;;;;;
1077;;;;;;;;;;;;;;;;;;;;;
1079;;;;;;;;;;;;;;;;;;;;;
1081;;;;;;;;;;;;;;;;;;;;;
1083;;;;;;;;;;;;;;;;;;;;;
1085;;;;;;;;;;;;;;;;;;;;;
1087;;;;;;;;;;;;;;;;;;;;;
1089;;;;;;;;;;;;;;;;;;;;;
1091;;;;;;;;;;;;;;;;;;;;;
1093;;;;;;;;;;;;;;;;;;;;;
1095;;;;;;;;;;;;;;;;;;;;;
1097;;;;;;;;;;;;;;;;;;;;;
1099;;;;;;;;;;;;;;;;;;;;;
1101;;;;;;;;;;;;;;;;;;;;;
1103;;;;;;;;;;;;;;;;;;;;;
1105;;;;;;;;;;;;;;;;;;;;;
1107;;;;;;;;;;;;;;;;;;;;;
1109;;;;;;;;;;;;;;;;;;;;;
1111;;;;;;;;;;;;;;;;;;;;;
1113;;;;;;;;;;;;;;;;;;;;;
1115;;;;;;;;;;;;;;;;;;;;;
1117;;;;;;;;;;;;;;;;;;;;;
1119;;;;;;;;;;;;;;;;;;;;;
1121;;;;;;;;;;;;;;;;;;;;;
1123;;;;;;;;;;;;;;;;;;;;;
1125;;;;;;;;;;;;;;;;;;;;;
1127;;;;;;;;;;;;;;;;;;;;;
1129;;;;;;;;;;;;;;;;;;;;;
1131;;;;;;;;;;;;;;;;;;;;;
1133;;;;;;;;;;;;;;;;;;;;;
1135;;;;;;;;;;;;;;;;;;;;;
1137;;;;;;;;;;;;;;;;;;;;;
1139;;;;;;;;;;;;;;;;;;;;;
1141;;;;;;;;;;;;;;;;;;;;;
1143;;;;;;;;;;;;;;;;;;;;;
1145;;;;;;;;;;;;;;;;;;;;;
1147;;;;;;;;;;;;;;;;;;;;;
1149;;;;;;;;;;;;;;;;;;;;;
1151;;;;;;;;;;;;;;;;;;;;;
1153;;;;;;;;;;;;;;;;;;;;;
1155;;;;;;;;;;;;;;;;;;;;;
1157;;;;;;;;;;;;;;;;;;;;;
1159;;;;;;;;;;;;;;;;;;;;;
1161;;;;;;;;;;;;;;;;;;;;;
1163;;;;;;;;;;;;;;;;;;;;;
1165;;;;;;;;;;;;;;;;;;;;;
1167;;;;;;;;;;;;;;;;;;;;;
1169;;;;;;;;;;;;;;;;;;;;;
1171;;;;;;;;;;;;;;;;;;;;;
1173;;;;;;;;;;;;;;;;;;;;;
1175;;;;;;;;;;;;;;;;;;;;;
1177;;;;;;;;;;;;;;;;;;;;;
1179;;;;;;;;;;;;;;;;;;;;;
1181;;;;;;;;;;;;;;;;;;;;;
1183;;;;;;;;;;;;;;;;;;;;;
1185;;;;;;;;;;;;;;;;;;;;;
1187;;;;;;;;;;;;;;;;;;;;;
1189;;;;;;;;;;;;;;;;;;;;;
1191;;;;;;;;;;;;;;;;;;;;;
1193;;;;;;;;;;;;;;;;;;;;;
1195;;;;;;;;;;;;;;;;;;;;;
1197;;;;;;;;;;;;;;;;;;;;;
1199;;;;;;;;;;;;;;;;;;;;;
1201;;;;;;;;;;;;;;;;;;;;;
1203;;;;;;;;;;;;;;;;;;;;;
1205;;;;;;;;;;;;;;;;;;;;;
1207;;;;;;;;;;;;;;;;;;;;;
1209;;;;;;;;;;;;;;;;;;;;;
1211;;;;;;;;;;;;;;;;;;;;;
1213;;;;;;;;;;;;;;;;;;;;;
1215;;;;;;;;;;;;;;;;;;;;;
1217;;;;;;;;;;;;;;;;;;;;;
1219;;;;;;;;;;;;;;;;;;;;;
1221;;;;;;;;;;;;;;;;;;;;;
1223;;;;;;;;;;;;;;;;;;;;;
1225;;;;;;;;;;;;;;;;;;;;;
1227;;;;;;;;;;;;;;;;;;;;;
1229;;;;;;;;;;;;;;;;;;;;;
1231;;;;;;;;;;;;;;;;;;;;;
1233;;;;;;;;;;;;;;;;;;;;;
1235;;;;;;;;;;;;;;;;;;;;;
1237;;;;;;;;;;;;;;;;;;;;;
1239;;;;;;;;;;;;;;;;;;;;;
1241;;;;;;;;;;;;;;;;;;;;;
1243;;;;;;;;;;;;;;;;;;;;;
1245;;;;;;;;;;;;;;;;;;;;;
1247;;;;;;;;;;;;;;;;;;;;;
1249;;;;;;;;;;;;;;;;;;;;;
1251;;;;;;;;;;;;;;;;;;;;;
1253;;;;;;;;;;;;;;;;;;;;;
1255;;;;;;;;;;;;;;;;;;;;;
1257;;;;;;;;;;;;;;;;;;;;;
1259;;;;;;;;;;;;;;;;;;;;;
1261;;;;;;;;;;;;;;;;;;;;;
1263;;;;;;;;;;;;;;;;;;;;;
1265;;;;;;;;;;;;;;;;;;;;;
1267;;;;;;;;;;;;;;;;;;;;;
1269;;;;;;;;;;;;;;;;;;;;;
1271;;;;;;;;;;;;;;;;;;;;;
1273;;;;;;;;;;;;;;;;;;;;;
1275;;;;;;;;;;;;;;;;;;;;;
1277;;;;;;;;;;;;;;;;;;;;;
1279;;;;;;;;;;;;;;;;;;;;;
1281;;;;;;;;;;;;;;;;;;;;;
1283;;;;;;;;;;;;;;;;;;;;;
1285;;;;;;;;;;;;;;;;;;;;;
1287;;;;;;;;;;;;;;;;;;;;;
1289;;;;;;;;;;;;;;;;;;;;;
1291;;;;;;;;;;;;;;;;;;;;;
1293;;;;;;;;;;;;;;;;;;;;;
1295;;;;;;;;;;;;;;;;;;;;;
1297;;;;;;;;;;;;;;;;;;;;;
1299;;;;;;;;;;;;;;;;;;;;;
1301;;;;;;;;;;;;;;;;;;;;;
1303;;;;;;;;;;;;;;;;;;;;;
1305;;;;;;;;;;;;;;;;;;;;;
1307;;;;;;;;;;;;;;;;;;;;;
1309;;;;;;;;;;;;;;;;;;;;;
1311;;;;;;;;;;;;;;;;;;;;;
1313;;;;;;;;;;;;;;;;;;;;;
1315;;;;;;;;;;;;;;;;;;;;;
1317;;;;;;;;;;;;;;;;;;;;;
1319;;;;;;;;;;;;;;;;;;;;;
1321;;;;;;;;;;;;;;;;;;;;;
1323;;;;;;;;;;;;;;;;;;;;;
1325;;;;;;;;;;;;;;;;;;;;;
1327;;;;;;;;;;;;;;;;;;;;;
1329;;;;;;;;;;;;;;;;;;;;;
1331;;;;;;;;;;;;;;;;;;;;;
1333;;;;;;;;;;;;;;;;;;;;;
1335;;;;;;;;;;;;;;;;;;;;;
1337;;;;;;;;;;;;;;;;;;;;;
1339;;;;;;;;;;;;;;;;;;;;;
1341;;;;;;;;;;;;;;;;;;;;;
1343;;;;;;;;;;;;;;;;;;;;;
1345;;;;;;;;;;;;;;;;;;;;;
1347;;;;;;;;;;;;;;;;;;;;;
1349;;;;;;;;;;;;;;;;;;;;;
1351;;;;;;;;;;;;;;;;;;;;;
1353;;;;;;;;;;;;;;;;;;;;;
1355;;;;;;;;;;;;;;;;;;;;;
1357;;;;;;;;;;;;;;;;;;;;;
1359;;;;;;;;;;;;;;;;;;;;;
1361;;;;;;;;;;;;;;;;;;;;;
1363;;;;;;;;;;;;;;;;;;;;;
1365;;;;;;;;;;;;;;;;;;;;;
1367;;;;;;;;;;;;;;;;;;;;;
1369;;;;;;;;;;;;;;;;;;;;;
1371;;;;;;;;;;;;;;;;;;;;;
1373;;;;;;;;;;;;;;;;;;;;;
1375;;;;;;;;;;;;;;;;;;;;;
1377;;;;;;;;;;;;;;;;;;;;;
1379;;;;;;;;;;;;;;;;;;;;;
1381;;;;;;;;;;;;;;;;;;;;;
1383;;;;;;;;;;;;;;;;;;;;;
1385;;;;;;;;;;;;;;;;;;;;;
1387;;;;;;;;;;;;;;;;;;;;;
1389;;;;;;;;;;;;;;;;;;;;;
1391;;;;;;;;;;;;;;;;;;;;;
1393;;;;;;;;;;;;;;;;;;;;;
1395;;;;;;;;;;;;;;;;;;;;;
1397;;;;;;;;;;;;;;;;;;;;;
1399;;;;;;;;;;;;;;;;;;;;;
1401;;;;;;;;;;;;;;;;;;;;;
1403;;;;;;;;;;;;;;;;;;;;;
1405;;;;;;;;;;;;;;;;;;;;;
1407;;;;;;;;;;;;;;;;;;;;;
1409;;;;;;;;;;;;;;;;;;;;;
1411;;;;;;;;;;;;;;;;;;;;;
1413;;;;;;;;;;;;;;;;;;;;;
1415;;;;;;;;;;;;;;;;;;;;;
1417;;;;;;;;;;;;;;;;;;;;;
1419;;;;;;;;;;;;;;;;;;;;;
1421;;;;;;;;;;;;;;;;;;;;;
1423;;;;;;;;;;;;;;;;;;;;;
1425;;;;;;;;;;;;;;;;;;;;;
1427;;;;;;;;;;;;;;;;;;;;;
1429;;;;;;;;;;;;;;;;;;;;;
1431;;;;;;;;;;;;;;;;;;;;;
1433;;;;;;;;;;;;;;;;;;;;;
1435;;;;;;;;;;;;;;;;;;;;;
1437;;;;;;;;;;;;;;;;;;;;;
1439;;;;;;;;;;;;;;;;;;;;;
1441;;;;;;;;;;;;;;;;;;;;;
1443;;;;;;;;;;;;;;;;;;;;;
1445;;;;;;;;;;;;;;;;;;;;;
1447;;;;;;;;;;;;;;;;;;;;;
1449;;;;;;;;;;;;;;;;;;;;;
1451;;;;;;;;;;;;;;;;;;;;;
1453;;;;;;;;;;;;;;;;;;;;;
1455;;;;;;;;;;;;;;;;;;;;;
1457;;;;;;;;;;;;;;;;;;;;;
1459;;;;;;;;;;;;;;;;;;;;;
1461;;;;;;;;;;;;;;;;;;;;;
1463;;;;;;;;;;;;;;;;;;;;;
1465;;;;;;;;;;;;;;;;;;;;;
1467;;;;;;;;;;;;;;;;;;;;;
1469;;;;;;;;;;;;;;;;;;;;;
1471;;;;;;;;;;;;;;;;;;;;;
1473;;;;;;;;;;;;;;;;;;;;;
1475;;;;;;;;;;;;;;;;;;;;;
1477;;;;;;;;;;;;;;;;;;;;;
1479;;;;;;;;;;;;;;;;;;;;;
1481;;;;;;;;;;;;;;;;;;;;;
1483;;;;;;;;;;;;;;;;;;;;;
1485;;;;;;;;;;;;;;;;;;;;;
1487;;;;;;;;;;;;;;;;;;;;;
1489;;;;;;;;;;;;;;;;;;;;;
1491;;;;;;;;;;;;;;;;;;;;;
1493;;;;;;;;;;;;;;;;;;;;;
1495;;;;;;;;;;;;;;;;;;;;;
1497;;;;;;;;;;;;;;;;;;;;;
1499;;;;;;;;;;;;;;;;;;;;;
1501;;;;;;;;;;;;;;;;;;;;;
1503;;;;;;;;;;;;;;;;;;;;;
1505;;;;;;;;;;;;;;;;;;;;;
1507;;;;;;;;;;;;;;;;;;;;;
1509;;;;;;;;;;;;;;;;;;;;;
1511;;;;;;;;;;;;;;;;;;;;;
1513;;;;;;;;;;;;;;;;;;;;;
1515;;;;;;;;;;;;;;;;;;;;;
1517;;;;;;;;;;;;;;;;;;;;;
1519;;;;;;;;;;;;;;;;;;;;;
1521;;;;;;;;;;;;;;;;;;;;;
1523;;;;;;;;;;;;;;;;;;;;;
1525;;;;;;;;;;;;;;;;;;;;;
1527;;;;;;;;;;;;;;;;;;;;;
1529;;;;;;;;;;;;;;;;;;;;;
1531;;;;;;;;;;;;;;;;;;;;;
1533;;;;;;;;;;;;;;;;;;;;;
1535;;;;;;;;;;;;;;;;;;;;;
1537;;;;;;;;;;;;;;;;;;;;;
1539;;;;;;;;;;;;;;;;;;;;;
1541;;;;;;;;;;;;;;;;;;;;;
1543;;;;;;;;;;;;;;;;;;;;;
1545;;;;;;;;;;;;;;;;;;;;;
1547;;;;;;;;;;;;;;;;;;;;;
1549;;;;;;;;;;;;;;;;;;;;;
1551;;;;;;;;;;;;;;;;;;;;;
1553;;;;;;;;;;;;;;;;;;;;;
1555;;;;;;;;;;;;;;;;;;;;;
1557;;;;;;;;;;;;;;;;;;;;;
1559;;;;;;;;;;;;;;;;;;;;;
1561;;;;;;;;;;;;;;;;;;;;;
1563;;;;;;;;;;;;;;;;;;;;;
1565;;;;;;;;;;;;;;;;;;;;;
1567;;;;;;;;;;;;;;;;;;;;;
1569;;;;;;;;;;;;;;;;;;;;;
1571;;;;;;;;;;;;;;;;;;;;;
1573;;;;;;;;;;;;;;;;;;;;;
1575;;;;;;;;;;;;;;;;;;;;;
1577;;;;;;;;;;;;;;;;;;;;;
1579;;;;;;;;;;;;;;;;;;;;;
1581;;;;;;;;;;;;;;;;;;;;;
1583;;;;;;;;;;;;;;;;;;;;;
1585;;;;;;;;;;;;;;;;;;;;;
1587;;;;;;;;;;;;;;;;;;;;;
1589;;;;;;;;;;;;;;;;;;;;;
1591;;;;;;;;;;;;;;;;;;;;;
1593;;;;;;;;;;;;;;;;;;;;;
1595;;;;;;;;;;;;;;;;;;;;;
1597;;;;;;;;;;;;;;;;;;;;;
1599;;;;;;;;;;;;;;;;;;;;;
1601;;;;;;;;;;;;;;;;;;;;;
1603;;;;;;;;;;;;;;;;;;;;;
1605;;;;;;;;;;;;;;;;;;;;;
1607;;;;;;;;;;;;;;;;;;;;;
1609;;;;;;;;;;;;;;;;;;;;;
1611;;;;;;;;;;;;;;;;;;;;;
1613;;;;;;;;;;;;;;;;;;;;;
1615;;;;;;;;;;;;;;;;;;;;;
1617;;;;;;;;;;;;;;;;;;;;;
1619;;;;;;;;;;;;;;;;;;;;;
1621;;;;;;;;;;;;;;;;;;;;;
1623;;;;;;;;;;;;;;;;;;;;;
1625;;;;;;;;;;;;;;;;;;;;;
1627;;;;;;;;;;;;;;;;;;;;;
1629;;;;;;;;;;;;;;;;;;;;;
1631;;;;;;;;;;;;;;;;;;;;;
1633;;;;;;;;;;;;;;;;;;;;;
1635;;;;;;;;;;;;;;;;;;;;;
1637;;;;;;;;;;;;;;;;;;;;;
1639;;;;;;;;;;;;;;;;;;;;;
1641;;;;;;;;;;;;;;;;;;;;;
1643;;;;;;;;;;;;;;;;;;;;;
1645;;;;;;;;;;;;;;;;;;;;;
1647;;;;;;;;;;;;;;;;;;;;;
1649;;;;;;;;;;;;;;;;;;;;;
1651;;;;;;;;;;;;;;;;;;;;;
1653;;;;;;;;;;;;;;;;;;;;;
1655;;;;;;;;;;;;;;;;;;;;;
1657;;;;;;;;;;;;;;;;;;;;;
1659;;;;;;;;;;;;;;;;;;;;;
1661;;;;;;;;;;;;;;;;;;;;;
1663;;;;;;;;;;;;;;;;;;;;;
1665;;;;;;;;;;;;;;;;;;;;;
1667;;;;;;;;;;;;;;;;;;;;;
1669;;;;;;;;;;;;;;;;;;;;;
1671;;;;;;;;;;;;;;;;;;;;;
1673;;;;;;;;;;;;;;;;;;;;;
1675;;;;;;;;;;;;;;;;;;;;;
1677;;;;;;;;;;;;;;;;;;;;;
1679;;;;;;;;;;;;;;;;;;;;;
1681;;;;;;;;;;;;;;;;;;;;;
1683;;;;;;;;;;;;;;;;;;;;;
1685;;;;;;;;;;;;;;;;;;;;;
1687;;;;;;;;;;;;;;;;;;;;;
1689;;;;;;;;;;;;;;;;;;;;;
1691;;;;;;;;;;;;;;;;;;;;;
1693;;;;;;;;;;;;;;;;;;;;;
1695;;;;;;;;;;;;;;;;;;;;;
1697;;;;;;;;;;;;;;;;;;;;;
1699;;;;;;;;;;;;;;;;;;;;;
1701;;;;;;;;;;;;;;;;;;;;;
1703;;;;;;;;;;;;;;;;;;;;;
1705;;;;;;;;;;;;;;;;;;;;;
1707;;;;;;;;;;;;;;;;;;;;;
1709;;;;;;;;;;;;;;;;;;;;;
1711;;;;;;;;;;;;;;;;;;;;;
1713;;;;;;;;;;;;;;;;;;;;;
1715;;;;;;;;;;;;;;;;;;;;;
1717;;;;;;;;;;;;;;;;;;;;;
1719;;;;;;;;;;;;;;;;;;;;;
1721;;;;;;;;;;;;;;;;;;;;;
1723;;;;;;;;;;;;;;;;;;;;;
1725;;;;;;;;;;;;;;;;;;;;;
1727;;;;;;;;;;;;;;;;;;;;;
1729;;;;;;;;;;;;;;;;;;;;;
1731;;;;;;;;;;;;;;;;;;;;;
1733;;;;;;;;;;;;;;;;;;;;;
1735;;;;;;;;;;;;;;;;;;;;;
1737;;;;;;;;;;;;;;;;;;;;;
1739;;;;;;;;;;;;;;;;;;;;;
1741;;;;;;;;;;;;;;;;;;;;;
1743;;;;;;;;;;;;;;;;;;;;;
1745;;;;;;;;;;;;;;;;;;;;;
1747;;;;;;;;;;;;;;;;;;;;;
1749;;;;;;;;;;;;;;;;;;;;;
1751;;;;;;;;;;;;;;;;;;;;;
1753;;;;;;;;;;;;;;;;;;;;;
1755;;;;;;;;;;;;;;;;;;;;;
1757;;;;;;;;;;;;;;;;;;;;;
1759;;;;;;;;;;;;;;;;;;;;;
1761;;;;;;;;;;;;;;;;;;;;;
1763;;;;;;;;;;;;;;;;;;;;;
1765;;;;;;;;;;;;;;;;;;;;;
1767;;;;;;;;;;;;;;;;;;;;;
1769;;;;;;;;;;;;;;;;;;;;;
1771;;;;;;;;;;;;;;;;;;;;;
1773;;;;;;;;;;;;;;;;;;;;;
1775;;;;;;;;;;;;;;;;;;;;;
1777;;;;;;;;;;;;;;;;;;;;;
1779;;;;;;;;;;;;;;;;;;;;;
1781;;;;;;;;;;;;;;;;;;;;;
1783;;;;;;;;;;;;;;;;;;;;;
1785;;;;;;;;;;;;;;;;;;;;;
1787;;;;;;;;;;;;;;;;;;;;;
1789;;;;;;;;;;;;;;;;;;;;;
1791;;;;;;;;;;;;;;;;;;;;;
1793;;;;;;;;;;;;;;;;;;;;;
1795;;;;;;;;;;;;;;;;;;;;;
1797;;;;;;;;;;;;;;;;;;;;;
1799;;;;;;;;;;;;;;;;;;;;;
1801;;;;;;;;;;;;;;;;;;;;;
1803;;;;;;;;;;;;;;;;;;;;;
1805;;;;;;;;;;;;;;;;;;;;;
1807;;;;;;;;;;;;;;;;;;;;;
1809;;;;;;;;;;;;;;;;;;;;;
1811;;;;;;;;;;;;;;;;;;;;;
1813;;;;;;;;;;;;;;;;;;;;;
1815;;;;;;;;;;;;;;;;;;;;;
1817;;;;;;;;;;;;;;;;;;;;;
1819;;;;;;;;;;;;;;;;;;;;;
1821;;;;;;;;;;;;;;;;;;;;;
1823;;;;;;;;;;;;;;;;;;;;;
1825;;;;;;;;;;;;;;;;;;;;;
1827;;;;;;;;;;;;;;;;;;;;;
1829;;;;;;;;;;;;;;;;;;;;;
1831;;;;;;;;;;;;;;;;;;;;;
1833;;;;;;;;;;;;;;;;;;;;;
1835;;;;;;;;;;;;;;;;;;;;;
1837;;;;;;;;;;;;;;;;;;;;;
1839;;;;;;;;;;;;;;;;;;;;;
1841;;;;;;;;;;;;;;;;;;;;;
1843;;;;;;;;;;;;;;;;;;;;;
1845;;;;;;;;;;;;;;;;;;;;;
1847;;;;;;;;;;;;;;;;;;;;;
1849;;;;;;;;;;;;;;;;;;;;;
1851;;;;;;;;;;;;;;;;;;;;;
1853;;;;;;;;;;;;;;;;;;;;;
1855;;;;;;;;;;;;;;;;;;;;;
1857;;;;;;;;;;;;;;;;;;;;;
1859;;;;;;;;;;;;;;;;;;;;;
1861;;;;;;;;;;;;;;;;;;;;;
1863;;;;;;;;;;;;;;;;;;;;;
1865;;;;;;;;;;;;;;;;;;;;;
1867;;;;;;;;;;;;;;;;;;;;;
1869;;;;;;;;;;;;;;;;;;;;;
1871;;;;;;;;;;;;;;;;;;;;;
1873;;;;;;;;;;;;;;;;;;;;;
1875;;;;;;;;;;;;;;;;;;;;;
1877;;;;;;;;;;;;;;;;;;;;;
1879;;;;;;;;;;;;;;;;;;;;;
1881;;;;;;;;;;;;;;;;;;;;;
1883;;;;;;;;;;;;;;;;;;;;;
1885;;;;;;;;;;;;;;;;;;;;;
1887;;;;;;;;;;;;;;;;;;;;;
1889;;;;;;;;;;;;;;;;;;;;;
1891;;;;;;;;;;;;;;;;;;;;;
1893;;;;;;;;;;;;;;;;;;;;;
1895;;;;;;;;;;;;;;;;;;;;;
1897;;;;;;;;;;;;;;;;;;;;;
1899;;;;;;;;;;;;;;;;;;;;;
1901;;;;;;;;;;;;;;;;;;;;;
1903;;;;;;;;;;;;;;;;;;;;;
1905;;;;;;;;;;;;;;;;;;;;;
1907;;;;;;;;;;;;;;;;;;;;;
1909;;;;;;;;;;;;;;;;;;;;;
1911;;;;;;;;;;;;;;;;;;;;;
1913;;;;;;;;;;;;;;;;;;;;;
1915;;;;;;;;;;;;;;;;;;;;;
1917;;;;;;;;;;;;;;;;;;;;;
1919;;;;;;;;;;;;;;;;;;;;;
1921;;;;;;;;;;;;;;;;;;;;;
1923;;;;;;;;;;;;;;;;;;;;;
1925;;;;;;;;;;;;;;;;;;;;;
1927;;;;;;;;;;;;;;;;;;;;;
1929;;;;;;;;;;;;;;;;;;;;;
1931;;;;;;;;;;;;;;;;;;;;;
1933;;;;;;;;;;;;;;;;;;;;;
1935;;;;;;;;;;;;;;;;;;;;;
1937;;;;;;;;;;;;;;;;;;;;;
1939;;;;;;;;;;;;;;;;;;;;;
1941;;;;;;;;;;;;;;;;;;;;;
1943;;;;;;;;;;;;;;;;;;;;;
1945;;;;;;;;;;;;;;;;;;;;;
1947;;;;;;;;;;;;;;;;;;;;;
1949;;;;;;;;;;;;;;;;;;;;;
1951;;;;;;;;;;;;;;;;;;;;;
1953;;;;;;;;;;;;;;;;;;;;;
1955;;;;;;;;;;;;;;;;;;;;;
1957;;;;;;;;;;;;;;;;;;;;;
1959;;;;;;;;;;;;;;;;;;;;;
1961;;;;;;;;;;;;;;;;;;;;;
1963;;;;;;;;;;;;;;;;;;;;;
1965;;;;;;;;;;;;;;;;;;;;;
1967;;;;;;;;;;;;;;;;;;;;;
1969;;;;;;;;;;;;;;;;;;;;;
1971;;;;;;;;;;;;;;;;;;;;;
1973;;;;;;;;;;;;;;;;;;;;;
1975;;;;;;;;;;;;;;;;;;;;;
1977;;;;;;;;;;;;;;;;;;;;;
1979;;;;;;;;;;;;;;;;;;;;;
1981;;;;;;;;;;;;;;;;;;;;;
1983;;;;;;;;;;;;;;;;;;;;;
1985;;;;;;;;;;;;;;;;;;;;;
1987;;;;;;;;;;;;;;;;;;;;;
1989;;;;;;;;;;;;;;;;;;;;;
1991;;;;;;;;;;;;;;;;;;;;;
1993;;;;;;;;;;;;;;;;;;;;;
1995;;;;;;;;;;;;;;;;;;;;;
1997;;;;;;;;;;;;;;;;;;;;;
1999;;;;;;;;;;;;;;;;;;;;;
2001;;;;;;;;;;;;;;;;;;;;;
2003;;;;;;;;;;;;;;;;;;;;;
2005;;;;;;;;;;;;;;;;;;;;;
2007;;;;;;;;;;;;;;;;;;;;;
2009;;;;;;;;;;;;;;;;;;;;;
2011;;;;;;;;;;;;;;;;;;;;;
2013;;;;;;;;;;;;;;;;;;;;;
2015;;;;;;;;;;;;;;;;;;;;;
2017;;;;;;;;;;;;;;;;;;;;;
2019;;;;;;;;;;;;;;;;;;;;;
2021;;;;;;;;;;;;;;;;;;;;;
2023;;;;;;;;;;;;;;;;;;;;;
2025;;;;;;;;;;;;;;;;;;;;;
2027;;;;;;;;;;;;;;;;;;;;;
2029;;;;;;;;;;;;;;;;;;;;;
2031;;;;;;;;;;;;;;;;;;;;;
2033;;;;;;;;;;;;;;;;;;;;;
2035;;;;;;;;;;;;;;;;;;;;;
2037;;;;;;;;;;;;;;;;;;;;;
2039;;;;;;;;;;;;;;;;;;;;;
2041;;;;;;;;;;;;;;;;;;;;;
2043;;;;;;;;;;;;;;;;;;;;;
2045;;;;;;;;;;;;;;;;;;;;;
2047;;;;;;;;;;;;;;;;;;;;;
2049;;;;;;;;;;;;;;;;;;;;;
2051;;;;;;;;;;;;;;;;;;;;;
2053;;;;;;;;;;;;;;;;;;;;;
2055;;;;;;;;;;;;;;;;;;;;;
2057;;;;;;;;;;;;;;;;;;;;;
2059;;;;;;;;;;;;;;;;;;;;;
2061;;;;;;;;;;;;;;;;;;;;;
2063;;;;;;;;;;;;;;;;;;;;;
2065;;;;;;;;;;;;;;;;;;;;;
2067;;;;;;;;;;;;;;;;;;;;;
2069;;;;;;;;;;;;;;;;;;;;;
2071;;;;;;;;;;;;;;;;;;;;;
2073;;;;;;;;;;;;;;;;;;;;;
2075;;;;;;;;;;;;;;;;;;;;;
2077;;;;;;;;;;;;;;;;;;;;;
2079;;;;;;;;;;;;;;;;;;;;;
2081;;;;;;;;;;;;;;;;;;;;;
2083;;;;;;;;;;;;;;;;;;;;;
2085;;;;;;;;;;;;;;;;;;;;;
2087;;;;;;;;;;;;;;;;;;;;;
2089;;;;;;;;;;;;;;;;;;;;;
2091;;;;;;;;;;;;;;;;;;;;;
2093;;;;;;;;;;;;;;;;;;;;;
2095;;;;;;;;;;;;;;;;;;;;;
2097;;;;;;;;;;;;;;;;;;;;;
2099;;;;;;;;;;;;;;;;;;;;;
2101;;;;;;;;;;;;;;;;;;;;;
2103;;;;;;;;;;;;;;;;;;;;;
2105;;;;;;;;;;;;;;;;;;;;;
2107;;;;;;;;;;;;;;;;;;;;;
2109;;;;;;;;;;;;;;;;;;;;;
2111;;;;;;;;;;;;;;;;;;;;;
2113;;;;;;;;;;;;;;;;;;;;;
2115;;;;;;;;;;;;;;;;;;;;;
2117;;;;;;;;;;;;;;;;;;;;;
2119;;;;;;;;;;;;;;;;;;;;;
2121;;;;;;;;;;;;;;;;;;;;;
2123;;;;;;;;;;;;;;;;;;;;;
2125;;;;;;;;;;;;;;;;;;;;;
2127;;;;;;;;;;;;;;;;;;;;;
2129;;;;;;;;;;;;;;;;;;;;;
2131;;;;;;;;;;;;;;;;;;;;;
2133;;;;;;;;;;;;;;;;;;;;;
2135;;;;;;;;;;;;;;;;;;;;;
2137;;;;;;;;;;;;;;;;;;;;;
2139;;;;;;;;;;;;;;;;;;;;;
2141;;;;;;;;;;;;;;;;;;;;;
2143;;;;;;;;;;;;;;;;;;;;;
2145;;;;;;;;;;;;;;;;;;;;;
2147;;;;;;;;;;;;;;;;;;;;;
2149;;;;;;;;;;;;;;;;;;;;;
2151;;;;;;;;;;;;;;;;;;;;;
2153;;;;;;;;;;;;;;;;;;;;;
2155;;;;;;;;;;;;;;;;;;;;;
2157;;;;;;;;;;;;;;;;;;;;;
2159;;;;;;;;;;;;;;;;;;;;;
2161;;;;;;;;;;;;;;;;;;;;;
2163;;;;;;;;;;;;;;;;;;;;;
2165;;;;;;;;;;;;;;;;;;;;;
2167;;;;;;;;;;;;;;;;;;;;;
2169;;;;;;;;;;;;;;;;;;;;;
2171;;;;;;;;;;;;;;;;;;;;;
2173;;;;;;;;;;;;;;;;;;;;;
2175;;;;;;;;;;;;;;;;;;;;;
2177;;;;;;;;;;;;;;;;;;;;;
2179;;;;;;;;;;;;;;;;;;;;;
2181;;;;;;;;;;;;;;;;;;;;;
2183;;;;;;;;;;;;;;;;;;;;;
2185;;;;;;;;;;;;;;;;;;;;;
2187;;;;;;;;;;;;;;;;;;;;;
2189;;;;;;;;;;;;;;;;;;;;;
2191;;;;;;;;;;;;;;;;;;;;;
2193;;;;;;;;;;;;;;;;;;;;;
2195;;;;;;;;;;;;;;;;;;;;;
2197;;;;;;;;;;;;;;;;;;;;;
2199;;;;;;;;;;;;;;;;;;;;;
2201;;;;;;;;;;;;;;;;;;;;;
2203;;;;;;;;;;;;;;;;;;;;;
2205;;;;;;;;;;;;;;;;;;;;;
2207;;;;;;;;;;;;;;;;;;;;;
2209;;;;;;;;;;;;;;;;;;;;;
2211;;;;;;;;;;;;;;;;;;;;;
2213;;;;;;;;;;;;;;;;;;;;;
2215;;;;;;;;;;;;;;;;;;;;;
2217;;;;;;;;;;;;;;;;;;;;;
2219;;;;;;;;;;;;;;;;;;;;;
2221;;;;;;;;;;;;;;;;;;;;;
2223;;;;;;;;;;;;;;;;;;;;;
2225;;;;;;;;;;;;;;;;;;;;;
2227;;;;;;;;;;;;;;;;;;;;;
2229;;;;;;;;;;;;;;;;;;;;;
2231;;;;;;;;;;;;;;;;;;;;;
2233;;;;;;;;;;;;;;;;;;;;;
2235;;;;;;;;;;;;;;;;;;;;;
2237;;;;;;;;;;;;;;;;;;;;;
2239;;;;;;;;;;;;;;;;;;;;;
2241;;;;;;;;;;;;;;;;;;;;;
2243;;;;;;;;;;;;;;;;;;;;;
2245;;;;;;;;;;;;;;;;;;;;;
2247;;;;;;;;;;;;;;;;;;;;;
2249;;;;;;;;;;;;;;;;;;;;;
2251;;;;;;;;;;;;;;;;;;;;;
2253;;;;;;;;;;;;;;;;;;;;;
2255;;;;;;;;;;;;;;;;;;;;;
2257;;;;;;;;;;;;;;;;;;;;;
2259;;;;;;;;;;;;;;;;;;;;;
2261;;;;;;;;;;;;;;;;;;;;;
2263;;;;;;;;;;;;;;;;;;;;;
2265;;;;;;;;;;;;;;;;;;;;;
2267;;;;;;;;;;;;;;;;;;;;;
2269;;;;;;;;;;;;;;;;;;;;;
2271;;;;;;;;;;;;;;;;;;;;;
2273;;;;;;;;;;;;;;;;;;;;;
2275;;;;;;;;;;;;;;;;;;;;;
2277;;;;;;;;;;;;;;;;;;;;;
2279;;;;;;;;;;;;;;;;;;;;;
2281;;;;;;;;;;;;;;;;;;;;;
2283;;;;;;;;;;;;;;;;;;;;;
2285;;;;;;;;;;;;;;;;;;;;;
2287;;;;;;;;;;;;;;;;;;;;;
2289;;;;;;;;;;;;;;;;;;;;;
2291;;;;;;;;;;;;;;;;;;;;;
2293;;;;;;;;;;;;;;;;;;;;;
2295;;;;;;;;;;;;;;;;;;;;;
2297;;;;;;;;;;;;;;;;;;;;;
2299;;;;;;;;;;;;;;;;;;;;;
2301;;;;;;;;;;;;;;;;;;;;;
2303;;;;;;;;;;;;;;;;;;;;;
2305;;;;;;;;;;;;;;;;;;;;;
2307;;;;;;;;;;;;;;;;;;;;;
2309;;;;;;;;;;;;;;;;;;;;;
2311;;;;;;;;;;;;;;;;;;;;;
2313;;;;;;;;;;;;;;;;;;;;;
2315;;;;;;;;;;;;;;;;;;;;;
2317;;;;;;;;;;;;;;;;;;;;;
2319;;;;;;;;;;;;;;;;;;;;;
2321;;;;;;;;;;;;;;;;;;;;;
2323;;;;;;;;;;;;;;;;;;;;;
2325;;;;;;;;;;;;;;;;;;;;;
2327;;;;;;;;;;;;;;;;;;;;;
2329;;;;;;;;;;;;;;;;;;;;;
2331;;;;;;;;;;;;;;;;;;;;;
2333;;;;;;;;;;;;;;;;;;;;;
2335;;;;;;;;;;;;;;;;;;;;;
2337;;;;;;;;;;;;;;;;;;;;;
2339;;;;;;;;;;;;;;;;;;;;;
2341;;;;;;;;;;;;;;;;;;;;;
2343;;;;;;;;;;;;;;;;;;;;;
2345;;;;;;;;;;;;;;;;;;;;;
2347;;;;;;;;;;;;;;;;;;;;;
2349;;;;;;;;;;;;;;;;;;;;;
2351;;;;;;;;;;;;;;;;;;;;;
2353;;;;;;;;;;;;;;;;;;;;;
2355;;;;;;;;;;;;;;;;;;;;;
2357;;;;;;;;;;;;;;;;;;;;;
2359;;;;;;;;;;;;;;;;;;;;;
2361;;;;;;;;;;;;;;;;;;;;;
2363;;;;;;;;;;;;;;;;;;;;;
2365;;;;;;;;;;;;;;;;;;;;;
2367;;;;;;;;;;;;;;;;;;;;;
2369;;;;;;;;;;;;;;;;;;;;;
2371;;;;;;;;;;;;;;;;;;;;;
2373;;;;;;;;;;;;;;;;;;;;;
2375;;;;;;;;;;;;;;;;;;;;;
2377;;;;;;;;;;;;;;;;;;;;;
2379;;;;;;;;;;;;;;;;;;;;;
2381;;;;;;;;;;;;;;;;;;;;;
2383;;;;;;;;;;;;;;;;;;;;;
2385;;;;;;;;;;;;;;;;;;;;;
2387;;;;;;;;;;;;;;;;;;;;;
2389;;;;;;;;;;;;;;;;;;;;;
2391;;;;;;;;;;;;;;;;;;;;;
2393;;;;;;;;;;;;;;;;;;;;;
2395;;;;;;;;;;;;;;;;;;;;;
2397;;;;;;;;;;;;;;;;;;;;;
2399;;;;;;;;;;;;;;;;;;;;;
2401;;;;;;;;;;;;;;;;;;;;;
2403;;;;;;;;;;;;;;;;;;;;;
2405;;;;;;;;;;;;;;;;;;;;;
2407;;;;;;;;;;;;;;;;;;;;;
2409;;;;;;;;;;;;;;;;;;;;;
2411;;;;;;;;;;;;;;;;;;;;;
2413;;;;;;;;;;;;;;;;;;;;;
2415;;;;;;;;;;;;;;;;;;;;;
2417;;;;;;;;;;;;;;;;;;;;;
2419;;;;;;;;;;;;;;;;;;;;;
2421;;;;;;;;;;;;;;;;;;;;;
2423;;;;;;;;;;;;;;;;;;;;;
2425;;;;;;;;;;;;;;;;;;;;;
2427;;;;;;;;;;;;;;;;;;;;;
2429;;;;;;;;;;;;;;;;;;;;;
2431;;;;;;;;;;;;;;;;;;;;;
2433;;;;;;;;;;;;;;;;;;;;;
2435;;;;;;;;;;;;;;;;;;;;;
2437;;;;;;;;;;;;;;;;;;;;;
2439;;;;;;;;;;;;;;;;;;;;;
2441;;;;;;;;;;;;;;;;;;;;;
2443;;;;;;;;;;;;;;;;;;;;;
2445;;;;;;;;;;;;;;;;;;;;;
2447;;;;;;;;;;;;;;;;;;;;;
2449;;;;;;;;;;;;;;;;;;;;;
2451;;;;;;;;;;;;;;;;;;;;;
2453;;;;;;;;;;;;;;;;;;;;;
2455;;;;;;;;;;;;;;;;;;;;;
2457;;;;;;;;;;;;;;;;;;;;;
2459;;;;;;;;;;;;;;;;;;;;;
2461;;;;;;;;;;;;;;;;;;;;;
2463;;;;;;;;;;;;;;;;;;;;;
2465;;;;;;;;;;;;;;;;;;;;;
2467;;;;;;;;;;;;;;;;;;;;;
2469;;;;;;;;;;;;;;;;;;;;;
2471;;;;;;;;;;;;;;;;;;;;;
2473;;;;;;;;;;;;;;;;;;;;;
2475;;;;;;;;;;;;;;;;;;;;;
2477;;;;;;;;;;;;;;;;;;;;;
2479;;;;;;;;;;;;;;;;;;;;;
2481;;;;;;;;;;;;;;;;;;;;;
2483;;;;;;;;;;;;;;;;;;;;;
2485;;;;;;;;;;;;;;;;;;;;;
2487;;;;;;;;;;;;;;;;;;;;;
2489;;;;;;;;;;;;;;;;;;;;;
2491;;;;;;;;;;;;;;;;;;;;;
2493;;;;;;;;;;;;;;;;;;;;;
2495;;;;;;;;;;;;;;;;;;;;;
2497;;;;;;;;;;;;;;;;;;;;;
2499;;;;;;;;;;;;;;;;;;;;;
2501;;;;;;;;;;;;;;;;;;;;;
2503;;;;;;;;;;;;;;;;;;;;;
2505;;;;;;;;;;;;;;;;;;;;;
2507;;;;;;;;;;;;;;;;;;;;;
2509;;;;;;;;;;;;;;;;;;;;;
2511;;;;;;;;;;;;;;;;;;;;;
2513;;;;;;;;;;;;;;;;;;;;;
2515;;;;;;;;;;;;;;;;;;;;;
2517;;;;;;;;;;;;;;;;;;;;;
2519;;;;;;;;;;;;;;;;;;;;;
2521;;;;;;;;;;;;;;;;;;;;;
2523;;;;;;;;;;;;;;;;;;;;;
2525;;;;;;;;;;;;;;;;;;;;;
2527;;;;;;;;;;;;;;;;;;;;;
2529;;;;;;;;;;;;;;;;;;;;;
2531;;;;;;;;;;;;;;;;;;;;;
2533;;;;;;;;;;;;;;;;;;;;;
2535;;;;;;;;;;;;;;;;;;;;;
2536;;;;;;;;;;;;;;;;;;;;;