File: carbon_superP/N2_1000rpm.txt
Index;Column 2 (V);Column 3 (V);Column 4 (V);Column 5 (V);Column 6 (V/s);Column 7 (V);Time (s);Potential applied (V);WE(1).Current (A);WE(1).Potential (V);Scan;Column 13 (RPM);ω (rad/s);Frequency (Hz);Z' (Ω);-Z'' (Ω);Z (Ω);-Phase (°);Time (s);Y' (Mho);-Y'' (Mho)
1;0;0.01;-1;-0.01;0.01;-0.00244;2806.43;-0.0146484;7.04651e-07;-0.0144257;3;1000;104.72;100000;34.7026;2.71072;34.8083;4.46646;2187.74;0.0286415;0.00223727
4;;;;;;;2807.17;-0.0219727;6.07605e-07;-0.021698;3;;;50119;33.5203;1.85864;33.5718;3.1737;2193.59;0.0297413;0.0016491
7;;;;;;;2807.9;-0.0292969;5.22461e-07;-0.0290039;3;;;25119;33.6065;1.91154;33.6608;3.25548;2199.67;0.0296602;0.00168707
10;;;;;;;2808.63;-0.0366211;4.50745e-07;-0.0363525;3;;;12589;34.1417;2.34823;34.2223;3.93456;2205.75;0.0291518;0.00200504
13;;;;;;;2809.36;-0.0439453;3.79333e-07;-0.0436584;3;;;6309.6;34.9542;3.14921;35.0958;5.14818;2213.54;0.0283785;0.00255677
16;;;;;;;2810.1;-0.0512695;3.22266e-07;-0.0510864;3;;;3162.3;35.9402;4.48497;36.219;7.11315;2219.85;0.0273973;0.0034189
19;;;;;;;2810.83;-0.05859375;2.59399e-07;-0.0585022;3;;;1584.9;37.1115;6.83784;37.7362;10.4397;2226.07;0.0260611;0.00480178
22;;;;;;;2811.56;-0.065918;2.16675e-07;-0.0657043;3;;;794.33;38.7019;11.1921;40.2878;16.1292;2232.17;0.0238444;0.0068955
25;;;;;;;2812.29;-0.0732422;1.7334e-07;-0.0730591;3;;;398.11;41.1914;19.1854;45.4402;24.9744;2238.29;0.0199492;0.00929162
28;;;;;;;2813.03;-0.0805664;1.3031e-07;-0.0802307;3;;;199.53;45.5375;33.4101;56.4792;36.2669;2244.38;0.0142755;0.0104737
31;;;;;;;2813.76;-0.0878906;9.58252e-08;-0.0875244;3;;;100;53.1723;58.2408;78.8625;47.6048;2250.54;0.00854958;0.00936455
34;;;;;;;2814.49;-0.0952148;5.53894e-08;-0.0949707;3;;;50.119;65.7358;101.581;120.996;57.092;2256.72;0.00449018;0.00693864
37;;;;;;;2815.22;-0.102539;1.21155e-08;-0.102295;3;;;25.119;85.672;178.488;197.984;64.3596;2271.15;0.00218564;0.00455354
40;;;;;;;2815.96;-0.109863;-1.06812e-08;-0.109589;3;;;12.589;117.122;317.876;338.767;69.7736;2279.23;0.00102056;0.00276985
43;;;;;;;2816.69;-0.1171875;-5.08423e-08;-0.116882;3;;;6.3096;167.823;575.035;599.024;73.7302;2287.97;0.000467694;0.00160253
46;;;;;;;2817.42;-0.124512;-8.44116e-08;-0.124176;3;;;3.1623;253.791;1053.76;1083.89;76.4586;2297.13;0.000216025;0.000896954
49;;;;;;;2818.15;-0.131836;-1.17432e-07;-0.131378;3;;;1.5849;410.256;1945.55;1988.34;78.0926;2307.2;0.000103771;0.000492111
52;;;;;;;2818.89;-0.13916;-1.47491e-07;-0.138733;3;;;0.79433;718.872;3605.34;3676.31;78.7236;2320.82;5.31896e-05;0.000266761
55;;;;;;;2819.62;-0.146484;-1.77185e-07;-0.145813;3;;;0.39811;1342.15;6652.93;6786.97;78.5943;2334.62;2.91374e-05;0.000144431
58;;;;;;;2820.35;-0.153809;-2.01965e-07;-0.15329;3;;;0.19953;2617.41;12223.6;12500.7;77.9139;2352.83;1.67495e-05;7.82222e-05
61;;;;;;;2821.08;-0.161133;-2.32666e-07;-0.160461;3;;;0.1;5224.28;22172.6;22779.7;76.7419;2381.14;1.00677e-05;4.27286e-05
64;;;;;;;2821.82;-0.168457;-2.56805e-07;-0.167847;3;;;;;;;;;;
67;;;;;;;2822.55;-0.175781;-2.83173e-07;-0.174866;3;;;;;;;;;;
70;;;;;;;2823.28;-0.183105;-3.07495e-07;-0.182159;3;;;;;;;;;;
73;;;;;;;2824.01;-0.19043;-3.26538e-07;-0.189911;3;;;;;;;;;;
76;;;;;;;2824.75;-0.197754;-3.59802e-07;-0.197266;3;;;;;;;;;;
79;;;;;;;2825.48;-0.205078;-3.74451e-07;-0.204498;3;;;;;;;;;;
82;;;;;;;2826.21;-0.212402;-4.04358e-07;-0.211884;3;;;;;;;;;;
85;;;;;;;2826.94;-0.219727;-4.27856e-07;-0.219177;3;;;;;;;;;;
88;;;;;;;2827.67;-0.227051;-4.58984e-07;-0.22644;3;;;;;;;;;;
91;;;;;;;2828.41;-0.234375;-4.88281e-07;-0.233765;3;;;;;;;;;;
94;;;;;;;2829.14;-0.241699;-5.11169e-07;-0.241089;3;;;;;;;;;;
97;;;;;;;2829.87;-0.249023;-5.28564e-07;-0.248413;3;;;;;;;;;;
100;;;;;;;2830.6;-0.256348;-5.54199e-07;-0.255676;3;;;;;;;;;;
103;;;;;;;2831.34;-0.263672;-5.82275e-07;-0.263;3;;;;;;;;;;
106;;;;;;;2832.07;-0.270996;-6.0791e-07;-0.270294;3;;;;;;;;;;
109;;;;;;;2832.8;-0.27832;-6.28967e-07;-0.277618;3;;;;;;;;;;
112;;;;;;;2833.53;-0.285645;-6.52466e-07;-0.284973;3;;;;;;;;;;
115;;;;;;;2834.27;-0.292969;-6.80237e-07;-0.292267;3;;;;;;;;;;
118;;;;;;;2835;-0.300293;-7.13196e-07;-0.29953;3;;;;;;;;;;
121;;;;;;;2835.73;-0.307617;-7.37305e-07;-0.306885;3;;;;;;;;;;
124;;;;;;;2836.46;-0.314941;-7.61719e-07;-0.314209;3;;;;;;;;;;
127;;;;;;;2837.2;-0.322266;-8.05664e-07;-0.321564;3;;;;;;;;;;
130;;;;;;;2837.93;-0.32959;-8.27637e-07;-0.328857;3;;;;;;;;;;
133;;;;;;;2838.66;-0.336914;-8.61816e-07;-0.336121;3;;;;;;;;;;
136;;;;;;;2839.39;-0.344238;-8.95996e-07;-0.343445;3;;;;;;;;;;
139;;;;;;;2840.13;-0.3515625;-9.26819e-07;-0.350769;3;;;;;;;;;;
142;;;;;;;2840.86;-0.358887;-9.65576e-07;-0.358032;3;;;;;;;;;;
145;;;;;;;2841.59;-0.366211;-1.00891e-06;-0.365387;3;;;;;;;;;;
148;;;;;;;2842.32;-0.373535;-1.04858e-06;-0.37262;3;;;;;;;;;;
151;;;;;;;2843.06;-0.380859;-1.09436e-06;-0.379944;3;;;;;;;;;;
154;;;;;;;2843.79;-0.388184;-1.13922e-06;-0.387299;3;;;;;;;;;;
157;;;;;;;2844.52;-0.395508;-1.19324e-06;-0.394653;3;;;;;;;;;;
160;;;;;;;2845.25;-0.402832;-1.24359e-06;-0.401886;3;;;;;;;;;;
163;;;;;;;2845.99;-0.410156;-1.29791e-06;-0.409271;3;;;;;;;;;;
166;;;;;;;2846.72;-0.41748;-1.35315e-06;-0.416534;3;;;;;;;;;;
169;;;;;;;2847.45;-0.424805;-1.41266e-06;-0.423737;3;;;;;;;;;;
172;;;;;;;2848.18;-0.432129;-1.46729e-06;-0.431152;3;;;;;;;;;;
175;;;;;;;2848.92;-0.439453;-1.52374e-06;-0.438385;3;;;;;;;;;;
178;;;;;;;2849.65;-0.446777;-1.58447e-06;-0.445679;3;;;;;;;;;;
181;;;;;;;2850.38;-0.454102;-1.64185e-06;-0.453125;3;;;;;;;;;;
184;;;;;;;2851.11;-0.461426;-1.69556e-06;-0.460358;3;;;;;;;;;;
187;;;;;;;2851.84;-0.46875;-1.74774e-06;-0.467621;3;;;;;;;;;;
190;;;;;;;2852.58;-0.476074;-1.79535e-06;-0.474976;3;;;;;;;;;;
193;;;;;;;2853.31;-0.483398;-1.84235e-06;-0.482269;3;;;;;;;;;;
196;;;;;;;2854.04;-0.490723;-1.88049e-06;-0.489563;3;;;;;;;;;;
199;;;;;;;2854.77;-0.498047;-1.92657e-06;-0.496857;3;;;;;;;;;;
202;;;;;;;2855.51;-0.505371;-1.96686e-06;-0.50415;3;;;;;;;;;;
205;;;;;;;2856.24;-0.512695;-1.98853e-06;-0.511444;3;;;;;;;;;;
208;;;;;;;2856.97;-0.52002;-2.02942e-06;-0.518768;3;;;;;;;;;;
211;;;;;;;2857.7;-0.527344;-2.05994e-06;-0.526062;3;;;;;;;;;;
214;;;;;;;2858.44;-0.534668;-2.08344e-06;-0.533417;3;;;;;;;;;;
217;;;;;;;2859.17;-0.541992;-2.11304e-06;-0.54071;3;;;;;;;;;;
220;;;;;;;2859.9;-0.549316;-2.12646e-06;-0.548096;3;;;;;;;;;;
223;;;;;;;2860.63;-0.556641;-2.15027e-06;-0.555298;3;;;;;;;;;;
226;;;;;;;2861.37;-0.563965;-2.17224e-06;-0.562653;3;;;;;;;;;;
229;;;;;;;2862.1;-0.571289;-2.19482e-06;-0.569946;3;;;;;;;;;;
232;;;;;;;2862.83;-0.578613;-2.20917e-06;-0.577271;3;;;;;;;;;;
235;;;;;;;2863.56;-0.5859375;-2.21436e-06;-0.584625;3;;;;;;;;;;
238;;;;;;;2864.3;-0.593262;-2.2403e-06;-0.591888;3;;;;;;;;;;
241;;;;;;;2865.03;-0.600586;-2.25861e-06;-0.599121;3;;;;;;;;;;
244;;;;;;;2865.76;-0.60791;-2.27142e-06;-0.606445;3;;;;;;;;;;
247;;;;;;;2866.49;-0.615234;-2.29218e-06;-0.6138;3;;;;;;;;;;
250;;;;;;;2867.23;-0.622559;-2.30682e-06;-0.621094;3;;;;;;;;;;
253;;;;;;;2867.96;-0.629883;-2.32635e-06;-0.628357;3;;;;;;;;;;
256;;;;;;;2868.69;-0.637207;-2.33582e-06;-0.635712;3;;;;;;;;;;
259;;;;;;;2869.42;-0.644531;-2.35504e-06;-0.643127;3;;;;;;;;;;
262;;;;;;;2870.16;-0.651855;-2.36969e-06;-0.650391;3;;;;;;;;;;
265;;;;;;;2870.89;-0.65918;-2.38525e-06;-0.657806;3;;;;;;;;;;
268;;;;;;;2871.62;-0.666504;-2.39166e-06;-0.664948;3;;;;;;;;;;
271;;;;;;;2872.35;-0.673828;-2.41394e-06;-0.672272;3;;;;;;;;;;
274;;;;;;;2873.09;-0.681152;-2.42737e-06;-0.679657;3;;;;;;;;;;
277;;;;;;;2873.82;-0.688477;-2.44629e-06;-0.68692;3;;;;;;;;;;
280;;;;;;;2874.55;-0.695801;-2.45728e-06;-0.694244;3;;;;;;;;;;
283;;;;;;;2875.28;-0.703125;-2.47742e-06;-0.70166;3;;;;;;;;;;
286;;;;;;;2876.01;-0.710449;-2.48993e-06;-0.708923;3;;;;;;;;;;
289;;;;;;;2876.75;-0.717773;-2.50275e-06;-0.716217;3;;;;;;;;;;
292;;;;;;;2877.48;-0.725098;-2.52594e-06;-0.723541;3;;;;;;;;;;
295;;;;;;;2878.21;-0.732422;-2.5415e-06;-0.730835;3;;;;;;;;;;
298;;;;;;;2878.94;-0.739746;-2.57019e-06;-0.73822;3;;;;;;;;;;
301;;;;;;;2879.68;-0.74707;-2.60223e-06;-0.745453;3;;;;;;;;;;
304;;;;;;;2880.41;-0.754395;-2.62085e-06;-0.753784;3;;;;;;;;;;
307;;;;;;;2881.14;-0.761719;-2.64954e-06;-0.760803;3;;;;;;;;;;
310;;;;;;;2881.87;-0.769043;-2.67914e-06;-0.768433;3;;;;;;;;;;
313;;;;;;;2882.61;-0.776367;-2.71118e-06;-0.775757;3;;;;;;;;;;
316;;;;;;;2883.34;-0.783691;-2.73743e-06;-0.783081;3;;;;;;;;;;
319;;;;;;;2884.07;-0.791016;-2.76855e-06;-0.790405;3;;;;;;;;;;
322;;;;;;;2884.8;-0.79834;-2.81128e-06;-0.797424;3;;;;;;;;;;
325;;;;;;;2885.54;-0.805664;-2.84485e-06;-0.804749;3;;;;;;;;;;
328;;;;;;;2886.27;-0.812988;-2.87415e-06;-0.812073;3;;;;;;;;;;
331;;;;;;;2887;-0.8203125;-2.91077e-06;-0.820007;3;;;;;;;;;;
334;;;;;;;2887.73;-0.827637;-2.95074e-06;-0.826721;3;;;;;;;;;;
337;;;;;;;2888.47;-0.834961;-2.99957e-06;-0.834045;3;;;;;;;;;;
340;;;;;;;2889.2;-0.842285;-3.02979e-06;-0.84198;3;;;;;;;;;;
343;;;;;;;2889.93;-0.849609;-3.07556e-06;-0.848999;3;;;;;;;;;;
346;;;;;;;2890.66;-0.856934;-3.10791e-06;-0.856018;3;;;;;;;;;;
349;;;;;;;2891.4;-0.864258;-3.15918e-06;-0.863953;3;;;;;;;;;;
352;;;;;;;2892.13;-0.871582;-3.20099e-06;-0.870667;3;;;;;;;;;;
355;;;;;;;2892.86;-0.878906;-3.24127e-06;-0.878601;3;;;;;;;;;;
358;;;;;;;2893.59;-0.88623;-3.28217e-06;-0.885315;3;;;;;;;;;;
361;;;;;;;2894.33;-0.893555;-3.32947e-06;-0.892639;3;;;;;;;;;;
364;;;;;;;2895.06;-0.900879;-3.36853e-06;-0.900879;3;;;;;;;;;;
367;;;;;;;2895.79;-0.908203;-3.41309e-06;-0.907593;3;;;;;;;;;;
370;;;;;;;2896.52;-0.915527;-3.44971e-06;-0.914612;3;;;;;;;;;;
373;;;;;;;2897.26;-0.922852;-3.49274e-06;-0.922241;3;;;;;;;;;;
376;;;;;;;2897.99;-0.930176;-3.54279e-06;-0.929565;3;;;;;;;;;;
379;;;;;;;2898.72;-0.9375;-3.59955e-06;-0.937195;3;;;;;;;;;;
382;;;;;;;2899.45;-0.944824;-3.64563e-06;-0.944214;3;;;;;;;;;;
385;;;;;;;2900.18;-0.952148;-3.69568e-06;-0.951233;3;;;;;;;;;;
388;;;;;;;2900.92;-0.959473;-3.74298e-06;-0.958862;3;;;;;;;;;;
391;;;;;;;2901.65;-0.966797;-3.7973e-06;-0.965881;3;;;;;;;;;;
394;;;;;;;2902.38;-0.974121;-3.90747e-06;-0.973206;3;;;;;;;;;;
397;;;;;;;2903.11;-0.981445;-3.91266e-06;-0.98114;3;;;;;;;;;;
400;;;;;;;2903.85;-0.98877;-3.99719e-06;-0.988159;3;;;;;;;;;;
403;;;;;;;2904.58;-0.996094;-4.039e-06;-0.995789;3;;;;;;;;;;
406;;;;;;;2905.31;-0.998535;-3.48572e-06;-0.99823;3;;;;;;;;;;
409;;;;;;;2906.04;-0.991211;-2.68799e-06;-0.990295;3;;;;;;;;;;
412;;;;;;;2906.78;-0.983887;-2.25281e-06;-0.983276;3;;;;;;;;;;
415;;;;;;;2907.51;-0.9765625;-1.94397e-06;-0.976257;3;;;;;;;;;;
418;;;;;;;2908.24;-0.969238;-1.70837e-06;-0.968323;3;;;;;;;;;;
421;;;;;;;2908.97;-0.961914;-1.51489e-06;-0.960999;3;;;;;;;;;;
424;;;;;;;2909.71;-0.95459;-1.34857e-06;-0.953979;3;;;;;;;;;;
427;;;;;;;2910.44;-0.947266;-1.2085e-06;-0.94696;3;;;;;;;;;;
430;;;;;;;2911.17;-0.939941;-1.09039e-06;-0.939331;3;;;;;;;;;;
433;;;;;;;2911.9;-0.932617;-9.8938e-07;-0.932007;3;;;;;;;;;;
436;;;;;;;2912.64;-0.925293;-8.95996e-07;-0.924988;3;;;;;;;;;;
439;;;;;;;2913.37;-0.917969;-8.02307e-07;-0.917053;3;;;;;;;;;;
442;;;;;;;2914.1;-0.910645;-7.37e-07;-0.91095;3;;;;;;;;;;
445;;;;;;;2914.83;-0.90332;-6.57349e-07;-0.903015;3;;;;;;;;;;
448;;;;;;;2915.57;-0.895996;-5.9967e-07;-0.894775;3;;;;;;;;;;
451;;;;;;;2916.3;-0.888672;-5.25208e-07;-0.888367;3;;;;;;;;;;
454;;;;;;;2917.03;-0.881348;-4.75464e-07;-0.880737;3;;;;;;;;;;
457;;;;;;;2917.76;-0.874023;-4.15955e-07;-0.873413;3;;;;;;;;;;
460;;;;;;;2918.5;-0.866699;-3.64685e-07;-0.865784;3;;;;;;;;;;
463;;;;;;;2919.23;-0.859375;-3.11584e-07;-0.858154;3;;;;;;;;;;
466;;;;;;;2919.96;-0.852051;-2.74963e-07;-0.852356;3;;;;;;;;;;
469;;;;;;;2920.69;-0.844727;-2.28882e-07;-0.843811;3;;;;;;;;;;
472;;;;;;;2921.43;-0.837402;-1.90125e-07;-0.836792;3;;;;;;;;;;
475;;;;;;;2922.16;-0.830078;-1.58386e-07;-0.829468;3;;;;;;;;;;
478;;;;;;;2922.89;-0.822754;-1.3092e-07;-0.822449;3;;;;;;;;;;
481;;;;;;;2923.62;-0.81543;-9.27734e-08;-0.814514;3;;;;;;;;;;
484;;;;;;;2924.35;-0.808105;-6.56128e-08;-0.806885;3;;;;;;;;;;
487;;;;;;;2925.09;-0.800781;-3.83301e-08;-0.800171;3;;;;;;;;;;
490;;;;;;;2925.82;-0.793457;-1.27869e-08;-0.793152;3;;;;;;;;;;
493;;;;;;;2926.55;-0.786133;2.29187e-08;-0.785217;3;;;;;;;;;;
496;;;;;;;2927.28;-0.778809;5.06592e-08;-0.778198;3;;;;;;;;;;
499;;;;;;;2928.02;-0.771484;6.96411e-08;-0.770874;3;;;;;;;;;;
502;;;;;;;2928.75;-0.76416;8.49915e-08;-0.763245;3;;;;;;;;;;
505;;;;;;;2929.48;-0.756836;1.09528e-07;-0.756836;3;;;;;;;;;;
508;;;;;;;2930.21;-0.749512;1.39008e-07;-0.748474;3;;;;;;;;;;
511;;;;;;;2930.95;-0.7421875;1.50909e-07;-0.741211;3;;;;;;;;;;
514;;;;;;;2931.68;-0.734863;1.76788e-07;-0.733978;3;;;;;;;;;;
517;;;;;;;2932.41;-0.727539;1.91742e-07;-0.726654;3;;;;;;;;;;
520;;;;;;;2933.14;-0.720215;2.1228e-07;-0.719299;3;;;;;;;;;;
523;;;;;;;2933.88;-0.712891;2.30988e-07;-0.712006;3;;;;;;;;;;
526;;;;;;;2934.61;-0.705566;2.44995e-07;-0.704559;3;;;;;;;;;;
529;;;;;;;2935.34;-0.698242;2.66815e-07;-0.697296;3;;;;;;;;;;
532;;;;;;;2936.07;-0.690918;2.72583e-07;-0.689941;3;;;;;;;;;;
535;;;;;;;2936.81;-0.683594;2.93182e-07;-0.682617;3;;;;;;;;;;
538;;;;;;;2937.54;-0.67627;2.97852e-07;-0.67511;3;;;;;;;;;;
541;;;;;;;2938.27;-0.668945;3.19214e-07;-0.667786;3;;;;;;;;;;
544;;;;;;;2939;-0.661621;3.30811e-07;-0.660492;3;;;;;;;;;;
547;;;;;;;2939.74;-0.654297;3.46985e-07;-0.653229;3;;;;;;;;;;
550;;;;;;;2940.47;-0.646973;3.59802e-07;-0.645905;3;;;;;;;;;;
553;;;;;;;2941.2;-0.639648;3.74146e-07;-0.63858;3;;;;;;;;;;
556;;;;;;;2941.93;-0.632324;3.84827e-07;-0.631256;3;;;;;;;;;;
559;;;;;;;2942.67;-0.625;4.00696e-07;-0.623932;3;;;;;;;;;;
562;;;;;;;2943.4;-0.617676;4.1626e-07;-0.616547;3;;;;;;;;;;
565;;;;;;;2944.13;-0.610352;4.32434e-07;-0.609253;3;;;;;;;;;;
568;;;;;;;2944.86;-0.603027;4.37622e-07;-0.601898;3;;;;;;;;;;
571;;;;;;;2945.6;-0.595703;4.58679e-07;-0.594635;3;;;;;;;;;;
574;;;;;;;2946.33;-0.588379;4.70581e-07;-0.587341;3;;;;;;;;;;
577;;;;;;;2947.06;-0.581055;4.73938e-07;-0.580017;3;;;;;;;;;;
580;;;;;;;2947.79;-0.57373;4.91028e-07;-0.572693;3;;;;;;;;;;
583;;;;;;;2948.52;-0.566406;4.90723e-07;-0.56546;3;;;;;;;;;;
586;;;;;;;2949.26;-0.559082;5.05676e-07;-0.558105;3;;;;;;;;;;
589;;;;;;;2949.99;-0.551758;5.23987e-07;-0.550903;3;;;;;;;;;;
592;;;;;;;2950.72;-0.544434;5.36499e-07;-0.543488;3;;;;;;;;;;
595;;;;;;;2951.45;-0.537109;5.34058e-07;-0.536255;3;;;;;;;;;;
598;;;;;;;2952.19;-0.529785;5.52063e-07;-0.5289;3;;;;;;;;;;
601;;;;;;;2952.92;-0.522461;5.66711e-07;-0.521515;3;;;;;;;;;;
604;;;;;;;2953.65;-0.515137;5.76782e-07;-0.514282;3;;;;;;;;;;
607;;;;;;;2954.38;-0.5078125;5.92041e-07;-0.506897;3;;;;;;;;;;
610;;;;;;;2955.12;-0.500488;6.00586e-07;-0.499634;3;;;;;;;;;;
613;;;;;;;2955.85;-0.493164;6.14929e-07;-0.49234;3;;;;;;;;;;
616;;;;;;;2956.58;-0.48584;6.28052e-07;-0.485046;3;;;;;;;;;;
619;;;;;;;2957.31;-0.478516;6.44531e-07;-0.477722;3;;;;;;;;;;
622;;;;;;;2958.05;-0.471191;6.52161e-07;-0.470428;3;;;;;;;;;;
625;;;;;;;2958.78;-0.463867;6.63757e-07;-0.463043;3;;;;;;;;;;
628;;;;;;;2959.51;-0.456543;6.79932e-07;-0.455811;3;;;;;;;;;;
631;;;;;;;2960.24;-0.449219;6.96411e-07;-0.448486;3;;;;;;;;;;
634;;;;;;;2960.98;-0.441895;7.15637e-07;-0.441101;3;;;;;;;;;;
637;;;;;;;2961.71;-0.43457;7.29065e-07;-0.433777;3;;;;;;;;;;
640;;;;;;;2962.44;-0.427246;7.48291e-07;-0.426514;3;;;;;;;;;;
643;;;;;;;2963.17;-0.419922;7.61108e-07;-0.41922;3;;;;;;;;;;
646;;;;;;;2963.91;-0.412598;7.8186e-07;-0.411926;3;;;;;;;;;;
649;;;;;;;2964.64;-0.405273;7.89185e-07;-0.404633;3;;;;;;;;;;
652;;;;;;;2965.37;-0.397949;8.09631e-07;-0.397278;3;;;;;;;;;;
655;;;;;;;2966.1;-0.390625;8.19702e-07;-0.389954;3;;;;;;;;;;
658;;;;;;;2966.84;-0.383301;8.45642e-07;-0.382721;3;;;;;;;;;;
661;;;;;;;2967.57;-0.375977;8.62427e-07;-0.375336;3;;;;;;;;;;
664;;;;;;;2968.3;-0.368652;8.77686e-07;-0.368042;3;;;;;;;;;;
667;;;;;;;2969.03;-0.361328;8.87756e-07;-0.360748;3;;;;;;;;;;
670;;;;;;;2969.76;-0.354004;9.07593e-07;-0.353424;3;;;;;;;;;;
673;;;;;;;2970.5;-0.34668;9.26819e-07;-0.3461;3;;;;;;;;;;
676;;;;;;;2971.23;-0.339355;9.39331e-07;-0.338806;3;;;;;;;;;;
679;;;;;;;2971.96;-0.332031;9.51843e-07;-0.331451;3;;;;;;;;;;
682;;;;;;;2972.69;-0.324707;9.68628e-07;-0.324127;3;;;;;;;;;;
685;;;;;;;2973.43;-0.317383;9.85413e-07;-0.316864;3;;;;;;;;;;
688;;;;;;;2974.16;-0.310059;1.01105e-06;-0.309479;3;;;;;;;;;;
691;;;;;;;2974.89;-0.302734;1.01532e-06;-0.302216;3;;;;;;;;;;
694;;;;;;;2975.62;-0.29541;1.02692e-06;-0.294891;3;;;;;;;;;;
697;;;;;;;2976.36;-0.288086;1.03821e-06;-0.287598;3;;;;;;;;;;
700;;;;;;;2977.09;-0.280762;1.05408e-06;-0.280243;3;;;;;;;;;;
703;;;;;;;2977.82;-0.2734375;1.06537e-06;-0.272919;3;;;;;;;;;;
706;;;;;;;2978.55;-0.266113;1.07574e-06;-0.265656;3;;;;;;;;;;
709;;;;;;;2979.29;-0.258789;1.08734e-06;-0.258362;3;;;;;;;;;;
712;;;;;;;2980.02;-0.251465;1.10535e-06;-0.251038;3;;;;;;;;;;
715;;;;;;;2980.75;-0.244141;1.11115e-06;-0.243683;3;;;;;;;;;;
718;;;;;;;2981.48;-0.236816;1.12183e-06;-0.23642;3;;;;;;;;;;
721;;;;;;;2982.22;-0.229492;1.13312e-06;-0.229126;3;;;;;;;;;;
724;;;;;;;2982.95;-0.222168;1.14288e-06;-0.221771;3;;;;;;;;;;
727;;;;;;;2983.68;-0.214844;1.16699e-06;-0.214447;3;;;;;;;;;;
730;;;;;;;2984.41;-0.20752;1.16547e-06;-0.207153;3;;;;;;;;;;
733;;;;;;;2985.15;-0.200195;1.17645e-06;-0.199921;3;;;;;;;;;;
736;;;;;;;2985.88;-0.192871;1.18988e-06;-0.192596;3;;;;;;;;;;
739;;;;;;;2986.61;-0.185547;1.19659e-06;-0.185303;3;;;;;;;;;;
742;;;;;;;2987.34;-0.178223;1.21277e-06;-0.177917;3;;;;;;;;;;
745;;;;;;;2988.08;-0.170898;1.22192e-06;-0.170624;3;;;;;;;;;;
748;;;;;;;2988.81;-0.163574;1.22803e-06;-0.163269;3;;;;;;;;;;
751;;;;;;;2989.54;-0.15625;1.24176e-06;-0.156097;3;;;;;;;;;;
754;;;;;;;2990.27;-0.148926;1.25275e-06;-0.148743;3;;;;;;;;;;
757;;;;;;;2991.01;-0.141602;1.26587e-06;-0.141449;3;;;;;;;;;;
760;;;;;;;2991.74;-0.134277;1.27594e-06;-0.134064;3;;;;;;;;;;
763;;;;;;;2992.47;-0.126953;1.28082e-06;-0.12677;3;;;;;;;;;;
766;;;;;;;2993.2;-0.119629;1.29395e-06;-0.119446;3;;;;;;;;;;
769;;;;;;;2993.93;-0.112305;1.30768e-06;-0.112213;3;;;;;;;;;;
772;;;;;;;2994.67;-0.10498;1.31226e-06;-0.104889;3;;;;;;;;;;
775;;;;;;;2995.4;-0.09765625;1.32263e-06;-0.0975342;3;;;;;;;;;;
778;;;;;;;2996.13;-0.090332;1.33636e-06;-0.0902405;3;;;;;;;;;;
781;;;;;;;2996.86;-0.0830078;1.35132e-06;-0.0829773;3;;;;;;;;;;
784;;;;;;;2997.6;-0.0756836;1.35529e-06;-0.0756531;3;;;;;;;;;;
787;;;;;;;2998.33;-0.0683594;1.36963e-06;-0.0683289;3;;;;;;;;;;
790;;;;;;;2999.06;-0.0610352;1.38611e-06;-0.0610352;3;;;;;;;;;;
793;;;;;;;2999.79;-0.0537109;1.3858e-06;-0.0536804;3;;;;;;;;;;
796;;;;;;;3000.53;-0.0463867;1.40625E-06;-0.0460327;3;;;;;;;;;;
799;;;;;;;3001.26;-0.0390625;1.41541e-06;-0.0388214;3;;;;;;;;;;
802;;;;;;;3001.99;-0.0317383;1.42609e-06;-0.0314636;3;;;;;;;;;;
805;;;;;;;3002.72;-0.0244141;1.4389e-06;-0.0241455;3;;;;;;;;;;
808;;;;;;;3003.46;-0.0170898;1.45416e-06;-0.0168549;3;;;;;;;;;;
811;;;;;;;3004.19;-0.009765625;1.46912e-06;-0.00950012;3;;;;;;;;;;
814;;;;;;;3004.92;-0.00244141;1.46637e-06;-0.00217285;3;;;;;;;;;;
817;;;;;;;3005.65;0.00488281;1.49048e-06;0.00511169;3;;;;;;;;;;
820;;;;;;;3006.39;0.012207;1.50604e-06;0.0123749;3;;;;;;;;;;
823;;;;;;;3007.12;0.00488281;1.11115e-06;0.00506897;3;;;;;;;;;;
826;;;;;;;3007.85;-0.00244141;9.30176e-07;-0.00226135;3;;;;;;;;;;
829;;;;;;;3008.58;-0.009765625;7.92236e-07;-0.0094696;3;;;;;;;;;;
832;;;;;;;;;;;;;;;;;;;;;
835;;;;;;;;;;;;;;;;;;;;;
838;;;;;;;;;;;;;;;;;;;;;
841;;;;;;;;;;;;;;;;;;;;;
844;;;;;;;;;;;;;;;;;;;;;
847;;;;;;;;;;;;;;;;;;;;;
850;;;;;;;;;;;;;;;;;;;;;
853;;;;;;;;;;;;;;;;;;;;;
856;;;;;;;;;;;;;;;;;;;;;
859;;;;;;;;;;;;;;;;;;;;;
862;;;;;;;;;;;;;;;;;;;;;
865;;;;;;;;;;;;;;;;;;;;;
868;;;;;;;;;;;;;;;;;;;;;
871;;;;;;;;;;;;;;;;;;;;;
874;;;;;;;;;;;;;;;;;;;;;
877;;;;;;;;;;;;;;;;;;;;;
880;;;;;;;;;;;;;;;;;;;;;
883;;;;;;;;;;;;;;;;;;;;;
886;;;;;;;;;;;;;;;;;;;;;
889;;;;;;;;;;;;;;;;;;;;;
892;;;;;;;;;;;;;;;;;;;;;
895;;;;;;;;;;;;;;;;;;;;;
898;;;;;;;;;;;;;;;;;;;;;
901;;;;;;;;;;;;;;;;;;;;;
904;;;;;;;;;;;;;;;;;;;;;
907;;;;;;;;;;;;;;;;;;;;;
910;;;;;;;;;;;;;;;;;;;;;
913;;;;;;;;;;;;;;;;;;;;;
916;;;;;;;;;;;;;;;;;;;;;
919;;;;;;;;;;;;;;;;;;;;;
922;;;;;;;;;;;;;;;;;;;;;
925;;;;;;;;;;;;;;;;;;;;;
928;;;;;;;;;;;;;;;;;;;;;
931;;;;;;;;;;;;;;;;;;;;;
934;;;;;;;;;;;;;;;;;;;;;
937;;;;;;;;;;;;;;;;;;;;;
940;;;;;;;;;;;;;;;;;;;;;
943;;;;;;;;;;;;;;;;;;;;;
946;;;;;;;;;;;;;;;;;;;;;
949;;;;;;;;;;;;;;;;;;;;;
952;;;;;;;;;;;;;;;;;;;;;
955;;;;;;;;;;;;;;;;;;;;;
958;;;;;;;;;;;;;;;;;;;;;
961;;;;;;;;;;;;;;;;;;;;;
964;;;;;;;;;;;;;;;;;;;;;
967;;;;;;;;;;;;;;;;;;;;;
970;;;;;;;;;;;;;;;;;;;;;
973;;;;;;;;;;;;;;;;;;;;;
976;;;;;;;;;;;;;;;;;;;;;
979;;;;;;;;;;;;;;;;;;;;;
982;;;;;;;;;;;;;;;;;;;;;
985;;;;;;;;;;;;;;;;;;;;;
988;;;;;;;;;;;;;;;;;;;;;
991;;;;;;;;;;;;;;;;;;;;;
994;;;;;;;;;;;;;;;;;;;;;
997;;;;;;;;;;;;;;;;;;;;;
1000;;;;;;;;;;;;;;;;;;;;;
1003;;;;;;;;;;;;;;;;;;;;;
1006;;;;;;;;;;;;;;;;;;;;;
1009;;;;;;;;;;;;;;;;;;;;;
1012;;;;;;;;;;;;;;;;;;;;;
1015;;;;;;;;;;;;;;;;;;;;;
1018;;;;;;;;;;;;;;;;;;;;;
1021;;;;;;;;;;;;;;;;;;;;;
1024;;;;;;;;;;;;;;;;;;;;;
1027;;;;;;;;;;;;;;;;;;;;;
1030;;;;;;;;;;;;;;;;;;;;;
1033;;;;;;;;;;;;;;;;;;;;;
1036;;;;;;;;;;;;;;;;;;;;;
1039;;;;;;;;;;;;;;;;;;;;;
1042;;;;;;;;;;;;;;;;;;;;;
1045;;;;;;;;;;;;;;;;;;;;;
1048;;;;;;;;;;;;;;;;;;;;;
1051;;;;;;;;;;;;;;;;;;;;;
1054;;;;;;;;;;;;;;;;;;;;;
1057;;;;;;;;;;;;;;;;;;;;;
1060;;;;;;;;;;;;;;;;;;;;;
1063;;;;;;;;;;;;;;;;;;;;;
1066;;;;;;;;;;;;;;;;;;;;;
1069;;;;;;;;;;;;;;;;;;;;;
1072;;;;;;;;;;;;;;;;;;;;;
1075;;;;;;;;;;;;;;;;;;;;;
1078;;;;;;;;;;;;;;;;;;;;;
1081;;;;;;;;;;;;;;;;;;;;;
1084;;;;;;;;;;;;;;;;;;;;;
1087;;;;;;;;;;;;;;;;;;;;;
1090;;;;;;;;;;;;;;;;;;;;;
1093;;;;;;;;;;;;;;;;;;;;;
1096;;;;;;;;;;;;;;;;;;;;;
1099;;;;;;;;;;;;;;;;;;;;;
1102;;;;;;;;;;;;;;;;;;;;;
1105;;;;;;;;;;;;;;;;;;;;;
1108;;;;;;;;;;;;;;;;;;;;;
1111;;;;;;;;;;;;;;;;;;;;;
1114;;;;;;;;;;;;;;;;;;;;;
1117;;;;;;;;;;;;;;;;;;;;;
1120;;;;;;;;;;;;;;;;;;;;;
1123;;;;;;;;;;;;;;;;;;;;;
1126;;;;;;;;;;;;;;;;;;;;;
1129;;;;;;;;;;;;;;;;;;;;;
1132;;;;;;;;;;;;;;;;;;;;;
1135;;;;;;;;;;;;;;;;;;;;;
1138;;;;;;;;;;;;;;;;;;;;;
1141;;;;;;;;;;;;;;;;;;;;;
1144;;;;;;;;;;;;;;;;;;;;;
1147;;;;;;;;;;;;;;;;;;;;;
1150;;;;;;;;;;;;;;;;;;;;;
1153;;;;;;;;;;;;;;;;;;;;;
1156;;;;;;;;;;;;;;;;;;;;;
1159;;;;;;;;;;;;;;;;;;;;;
1162;;;;;;;;;;;;;;;;;;;;;
1165;;;;;;;;;;;;;;;;;;;;;
1168;;;;;;;;;;;;;;;;;;;;;
1171;;;;;;;;;;;;;;;;;;;;;
1174;;;;;;;;;;;;;;;;;;;;;
1177;;;;;;;;;;;;;;;;;;;;;
1180;;;;;;;;;;;;;;;;;;;;;
1183;;;;;;;;;;;;;;;;;;;;;
1186;;;;;;;;;;;;;;;;;;;;;
1189;;;;;;;;;;;;;;;;;;;;;
1192;;;;;;;;;;;;;;;;;;;;;
1195;;;;;;;;;;;;;;;;;;;;;
1198;;;;;;;;;;;;;;;;;;;;;
1201;;;;;;;;;;;;;;;;;;;;;
1204;;;;;;;;;;;;;;;;;;;;;
1207;;;;;;;;;;;;;;;;;;;;;
1210;;;;;;;;;;;;;;;;;;;;;
1213;;;;;;;;;;;;;;;;;;;;;
1216;;;;;;;;;;;;;;;;;;;;;
1219;;;;;;;;;;;;;;;;;;;;;
1222;;;;;;;;;;;;;;;;;;;;;
1225;;;;;;;;;;;;;;;;;;;;;
1228;;;;;;;;;;;;;;;;;;;;;
1231;;;;;;;;;;;;;;;;;;;;;
1234;;;;;;;;;;;;;;;;;;;;;
1237;;;;;;;;;;;;;;;;;;;;;
1240;;;;;;;;;;;;;;;;;;;;;
1243;;;;;;;;;;;;;;;;;;;;;
1246;;;;;;;;;;;;;;;;;;;;;
1249;;;;;;;;;;;;;;;;;;;;;
1252;;;;;;;;;;;;;;;;;;;;;
1255;;;;;;;;;;;;;;;;;;;;;
1258;;;;;;;;;;;;;;;;;;;;;
1261;;;;;;;;;;;;;;;;;;;;;
1264;;;;;;;;;;;;;;;;;;;;;
1267;;;;;;;;;;;;;;;;;;;;;
1270;;;;;;;;;;;;;;;;;;;;;
1273;;;;;;;;;;;;;;;;;;;;;
1276;;;;;;;;;;;;;;;;;;;;;
1279;;;;;;;;;;;;;;;;;;;;;
1282;;;;;;;;;;;;;;;;;;;;;
1285;;;;;;;;;;;;;;;;;;;;;
1288;;;;;;;;;;;;;;;;;;;;;
1291;;;;;;;;;;;;;;;;;;;;;
1294;;;;;;;;;;;;;;;;;;;;;
1297;;;;;;;;;;;;;;;;;;;;;
1300;;;;;;;;;;;;;;;;;;;;;
1303;;;;;;;;;;;;;;;;;;;;;
1306;;;;;;;;;;;;;;;;;;;;;
1309;;;;;;;;;;;;;;;;;;;;;
1312;;;;;;;;;;;;;;;;;;;;;
1315;;;;;;;;;;;;;;;;;;;;;
1318;;;;;;;;;;;;;;;;;;;;;
1321;;;;;;;;;;;;;;;;;;;;;
1324;;;;;;;;;;;;;;;;;;;;;
1327;;;;;;;;;;;;;;;;;;;;;
1330;;;;;;;;;;;;;;;;;;;;;
1333;;;;;;;;;;;;;;;;;;;;;
1336;;;;;;;;;;;;;;;;;;;;;
1339;;;;;;;;;;;;;;;;;;;;;
1342;;;;;;;;;;;;;;;;;;;;;
1345;;;;;;;;;;;;;;;;;;;;;
1348;;;;;;;;;;;;;;;;;;;;;
1351;;;;;;;;;;;;;;;;;;;;;
1354;;;;;;;;;;;;;;;;;;;;;
1357;;;;;;;;;;;;;;;;;;;;;
1360;;;;;;;;;;;;;;;;;;;;;
1363;;;;;;;;;;;;;;;;;;;;;
1366;;;;;;;;;;;;;;;;;;;;;
1369;;;;;;;;;;;;;;;;;;;;;
1372;;;;;;;;;;;;;;;;;;;;;
1375;;;;;;;;;;;;;;;;;;;;;
1378;;;;;;;;;;;;;;;;;;;;;
1381;;;;;;;;;;;;;;;;;;;;;
1384;;;;;;;;;;;;;;;;;;;;;
1387;;;;;;;;;;;;;;;;;;;;;
1390;;;;;;;;;;;;;;;;;;;;;
1393;;;;;;;;;;;;;;;;;;;;;
1396;;;;;;;;;;;;;;;;;;;;;
1399;;;;;;;;;;;;;;;;;;;;;
1402;;;;;;;;;;;;;;;;;;;;;
1405;;;;;;;;;;;;;;;;;;;;;
1408;;;;;;;;;;;;;;;;;;;;;
1411;;;;;;;;;;;;;;;;;;;;;
1414;;;;;;;;;;;;;;;;;;;;;
1417;;;;;;;;;;;;;;;;;;;;;
1420;;;;;;;;;;;;;;;;;;;;;
1423;;;;;;;;;;;;;;;;;;;;;
1426;;;;;;;;;;;;;;;;;;;;;
1429;;;;;;;;;;;;;;;;;;;;;
1432;;;;;;;;;;;;;;;;;;;;;
1435;;;;;;;;;;;;;;;;;;;;;
1438;;;;;;;;;;;;;;;;;;;;;
1441;;;;;;;;;;;;;;;;;;;;;
1444;;;;;;;;;;;;;;;;;;;;;
1447;;;;;;;;;;;;;;;;;;;;;
1450;;;;;;;;;;;;;;;;;;;;;
1453;;;;;;;;;;;;;;;;;;;;;
1456;;;;;;;;;;;;;;;;;;;;;
1459;;;;;;;;;;;;;;;;;;;;;
1462;;;;;;;;;;;;;;;;;;;;;
1465;;;;;;;;;;;;;;;;;;;;;
1468;;;;;;;;;;;;;;;;;;;;;
1471;;;;;;;;;;;;;;;;;;;;;
1474;;;;;;;;;;;;;;;;;;;;;
1477;;;;;;;;;;;;;;;;;;;;;
1480;;;;;;;;;;;;;;;;;;;;;
1483;;;;;;;;;;;;;;;;;;;;;
1486;;;;;;;;;;;;;;;;;;;;;
1489;;;;;;;;;;;;;;;;;;;;;
1492;;;;;;;;;;;;;;;;;;;;;
1495;;;;;;;;;;;;;;;;;;;;;
1498;;;;;;;;;;;;;;;;;;;;;
1501;;;;;;;;;;;;;;;;;;;;;
1504;;;;;;;;;;;;;;;;;;;;;
1507;;;;;;;;;;;;;;;;;;;;;
1510;;;;;;;;;;;;;;;;;;;;;
1513;;;;;;;;;;;;;;;;;;;;;
1516;;;;;;;;;;;;;;;;;;;;;
1519;;;;;;;;;;;;;;;;;;;;;
1522;;;;;;;;;;;;;;;;;;;;;
1525;;;;;;;;;;;;;;;;;;;;;
1528;;;;;;;;;;;;;;;;;;;;;
1531;;;;;;;;;;;;;;;;;;;;;
1534;;;;;;;;;;;;;;;;;;;;;
1537;;;;;;;;;;;;;;;;;;;;;
1540;;;;;;;;;;;;;;;;;;;;;
1543;;;;;;;;;;;;;;;;;;;;;
1546;;;;;;;;;;;;;;;;;;;;;
1549;;;;;;;;;;;;;;;;;;;;;
1552;;;;;;;;;;;;;;;;;;;;;
1555;;;;;;;;;;;;;;;;;;;;;
1558;;;;;;;;;;;;;;;;;;;;;
1561;;;;;;;;;;;;;;;;;;;;;
1564;;;;;;;;;;;;;;;;;;;;;
1567;;;;;;;;;;;;;;;;;;;;;
1570;;;;;;;;;;;;;;;;;;;;;
1573;;;;;;;;;;;;;;;;;;;;;
1576;;;;;;;;;;;;;;;;;;;;;
1579;;;;;;;;;;;;;;;;;;;;;
1582;;;;;;;;;;;;;;;;;;;;;
1585;;;;;;;;;;;;;;;;;;;;;
1588;;;;;;;;;;;;;;;;;;;;;
1591;;;;;;;;;;;;;;;;;;;;;
1594;;;;;;;;;;;;;;;;;;;;;
1597;;;;;;;;;;;;;;;;;;;;;
1600;;;;;;;;;;;;;;;;;;;;;
1603;;;;;;;;;;;;;;;;;;;;;
1606;;;;;;;;;;;;;;;;;;;;;
1609;;;;;;;;;;;;;;;;;;;;;
1612;;;;;;;;;;;;;;;;;;;;;
1615;;;;;;;;;;;;;;;;;;;;;
1618;;;;;;;;;;;;;;;;;;;;;
1621;;;;;;;;;;;;;;;;;;;;;
1624;;;;;;;;;;;;;;;;;;;;;
1627;;;;;;;;;;;;;;;;;;;;;
1630;;;;;;;;;;;;;;;;;;;;;
1633;;;;;;;;;;;;;;;;;;;;;
1636;;;;;;;;;;;;;;;;;;;;;
1639;;;;;;;;;;;;;;;;;;;;;
1642;;;;;;;;;;;;;;;;;;;;;
1645;;;;;;;;;;;;;;;;;;;;;
1648;;;;;;;;;;;;;;;;;;;;;
1651;;;;;;;;;;;;;;;;;;;;;
1654;;;;;;;;;;;;;;;;;;;;;
1657;;;;;;;;;;;;;;;;;;;;;
1660;;;;;;;;;;;;;;;;;;;;;
1663;;;;;;;;;;;;;;;;;;;;;
1666;;;;;;;;;;;;;;;;;;;;;
1669;;;;;;;;;;;;;;;;;;;;;
1672;;;;;;;;;;;;;;;;;;;;;
1675;;;;;;;;;;;;;;;;;;;;;
1678;;;;;;;;;;;;;;;;;;;;;
1681;;;;;;;;;;;;;;;;;;;;;
1684;;;;;;;;;;;;;;;;;;;;;
1687;;;;;;;;;;;;;;;;;;;;;
1690;;;;;;;;;;;;;;;;;;;;;
1693;;;;;;;;;;;;;;;;;;;;;
1696;;;;;;;;;;;;;;;;;;;;;
1699;;;;;;;;;;;;;;;;;;;;;
1702;;;;;;;;;;;;;;;;;;;;;
1705;;;;;;;;;;;;;;;;;;;;;
1708;;;;;;;;;;;;;;;;;;;;;
1711;;;;;;;;;;;;;;;;;;;;;
1714;;;;;;;;;;;;;;;;;;;;;
1717;;;;;;;;;;;;;;;;;;;;;
1720;;;;;;;;;;;;;;;;;;;;;
1723;;;;;;;;;;;;;;;;;;;;;
1726;;;;;;;;;;;;;;;;;;;;;
1729;;;;;;;;;;;;;;;;;;;;;
1732;;;;;;;;;;;;;;;;;;;;;
1735;;;;;;;;;;;;;;;;;;;;;
1738;;;;;;;;;;;;;;;;;;;;;
1741;;;;;;;;;;;;;;;;;;;;;
1744;;;;;;;;;;;;;;;;;;;;;
1747;;;;;;;;;;;;;;;;;;;;;
1750;;;;;;;;;;;;;;;;;;;;;
1753;;;;;;;;;;;;;;;;;;;;;
1756;;;;;;;;;;;;;;;;;;;;;
1759;;;;;;;;;;;;;;;;;;;;;
1762;;;;;;;;;;;;;;;;;;;;;
1765;;;;;;;;;;;;;;;;;;;;;
1768;;;;;;;;;;;;;;;;;;;;;
1771;;;;;;;;;;;;;;;;;;;;;
1774;;;;;;;;;;;;;;;;;;;;;
1777;;;;;;;;;;;;;;;;;;;;;
1780;;;;;;;;;;;;;;;;;;;;;
1783;;;;;;;;;;;;;;;;;;;;;
1786;;;;;;;;;;;;;;;;;;;;;
1789;;;;;;;;;;;;;;;;;;;;;
1792;;;;;;;;;;;;;;;;;;;;;
1795;;;;;;;;;;;;;;;;;;;;;
1798;;;;;;;;;;;;;;;;;;;;;
1801;;;;;;;;;;;;;;;;;;;;;
1804;;;;;;;;;;;;;;;;;;;;;
1807;;;;;;;;;;;;;;;;;;;;;
1810;;;;;;;;;;;;;;;;;;;;;
1813;;;;;;;;;;;;;;;;;;;;;
1816;;;;;;;;;;;;;;;;;;;;;
1819;;;;;;;;;;;;;;;;;;;;;
1822;;;;;;;;;;;;;;;;;;;;;
1825;;;;;;;;;;;;;;;;;;;;;
1828;;;;;;;;;;;;;;;;;;;;;
1831;;;;;;;;;;;;;;;;;;;;;
1834;;;;;;;;;;;;;;;;;;;;;
1837;;;;;;;;;;;;;;;;;;;;;
1840;;;;;;;;;;;;;;;;;;;;;
1843;;;;;;;;;;;;;;;;;;;;;
1846;;;;;;;;;;;;;;;;;;;;;
1849;;;;;;;;;;;;;;;;;;;;;
1852;;;;;;;;;;;;;;;;;;;;;
1855;;;;;;;;;;;;;;;;;;;;;
1858;;;;;;;;;;;;;;;;;;;;;
1861;;;;;;;;;;;;;;;;;;;;;
1864;;;;;;;;;;;;;;;;;;;;;
1867;;;;;;;;;;;;;;;;;;;;;
1870;;;;;;;;;;;;;;;;;;;;;
1873;;;;;;;;;;;;;;;;;;;;;
1876;;;;;;;;;;;;;;;;;;;;;
1879;;;;;;;;;;;;;;;;;;;;;
1882;;;;;;;;;;;;;;;;;;;;;
1885;;;;;;;;;;;;;;;;;;;;;
1888;;;;;;;;;;;;;;;;;;;;;
1891;;;;;;;;;;;;;;;;;;;;;
1894;;;;;;;;;;;;;;;;;;;;;
1897;;;;;;;;;;;;;;;;;;;;;
1900;;;;;;;;;;;;;;;;;;;;;
1903;;;;;;;;;;;;;;;;;;;;;
1906;;;;;;;;;;;;;;;;;;;;;
1909;;;;;;;;;;;;;;;;;;;;;
1912;;;;;;;;;;;;;;;;;;;;;
1915;;;;;;;;;;;;;;;;;;;;;
1918;;;;;;;;;;;;;;;;;;;;;
1921;;;;;;;;;;;;;;;;;;;;;
1924;;;;;;;;;;;;;;;;;;;;;
1927;;;;;;;;;;;;;;;;;;;;;
1930;;;;;;;;;;;;;;;;;;;;;
1933;;;;;;;;;;;;;;;;;;;;;
1936;;;;;;;;;;;;;;;;;;;;;
1939;;;;;;;;;;;;;;;;;;;;;
1942;;;;;;;;;;;;;;;;;;;;;
1945;;;;;;;;;;;;;;;;;;;;;
1948;;;;;;;;;;;;;;;;;;;;;
1951;;;;;;;;;;;;;;;;;;;;;
1954;;;;;;;;;;;;;;;;;;;;;
1957;;;;;;;;;;;;;;;;;;;;;
1960;;;;;;;;;;;;;;;;;;;;;
1963;;;;;;;;;;;;;;;;;;;;;
1966;;;;;;;;;;;;;;;;;;;;;
1969;;;;;;;;;;;;;;;;;;;;;
1972;;;;;;;;;;;;;;;;;;;;;
1975;;;;;;;;;;;;;;;;;;;;;
1978;;;;;;;;;;;;;;;;;;;;;
1981;;;;;;;;;;;;;;;;;;;;;
1984;;;;;;;;;;;;;;;;;;;;;
1987;;;;;;;;;;;;;;;;;;;;;
1990;;;;;;;;;;;;;;;;;;;;;
1993;;;;;;;;;;;;;;;;;;;;;
1996;;;;;;;;;;;;;;;;;;;;;
1999;;;;;;;;;;;;;;;;;;;;;
2002;;;;;;;;;;;;;;;;;;;;;
2005;;;;;;;;;;;;;;;;;;;;;
2008;;;;;;;;;;;;;;;;;;;;;
2011;;;;;;;;;;;;;;;;;;;;;
2014;;;;;;;;;;;;;;;;;;;;;
2017;;;;;;;;;;;;;;;;;;;;;
2020;;;;;;;;;;;;;;;;;;;;;
2023;;;;;;;;;;;;;;;;;;;;;
2026;;;;;;;;;;;;;;;;;;;;;
2029;;;;;;;;;;;;;;;;;;;;;
2032;;;;;;;;;;;;;;;;;;;;;
2035;;;;;;;;;;;;;;;;;;;;;
2038;;;;;;;;;;;;;;;;;;;;;
2041;;;;;;;;;;;;;;;;;;;;;
2044;;;;;;;;;;;;;;;;;;;;;
2047;;;;;;;;;;;;;;;;;;;;;
2050;;;;;;;;;;;;;;;;;;;;;
2053;;;;;;;;;;;;;;;;;;;;;
2056;;;;;;;;;;;;;;;;;;;;;
2059;;;;;;;;;;;;;;;;;;;;;
2062;;;;;;;;;;;;;;;;;;;;;
2065;;;;;;;;;;;;;;;;;;;;;
2068;;;;;;;;;;;;;;;;;;;;;
2071;;;;;;;;;;;;;;;;;;;;;
2074;;;;;;;;;;;;;;;;;;;;;
2077;;;;;;;;;;;;;;;;;;;;;
2080;;;;;;;;;;;;;;;;;;;;;
2083;;;;;;;;;;;;;;;;;;;;;
2086;;;;;;;;;;;;;;;;;;;;;
2089;;;;;;;;;;;;;;;;;;;;;
2092;;;;;;;;;;;;;;;;;;;;;
2095;;;;;;;;;;;;;;;;;;;;;
2098;;;;;;;;;;;;;;;;;;;;;
2101;;;;;;;;;;;;;;;;;;;;;
2104;;;;;;;;;;;;;;;;;;;;;
2107;;;;;;;;;;;;;;;;;;;;;
2110;;;;;;;;;;;;;;;;;;;;;
2113;;;;;;;;;;;;;;;;;;;;;
2116;;;;;;;;;;;;;;;;;;;;;
2119;;;;;;;;;;;;;;;;;;;;;
2122;;;;;;;;;;;;;;;;;;;;;
2125;;;;;;;;;;;;;;;;;;;;;
2128;;;;;;;;;;;;;;;;;;;;;
2131;;;;;;;;;;;;;;;;;;;;;
2134;;;;;;;;;;;;;;;;;;;;;
2137;;;;;;;;;;;;;;;;;;;;;
2140;;;;;;;;;;;;;;;;;;;;;
2143;;;;;;;;;;;;;;;;;;;;;
2146;;;;;;;;;;;;;;;;;;;;;
2149;;;;;;;;;;;;;;;;;;;;;
2152;;;;;;;;;;;;;;;;;;;;;
2155;;;;;;;;;;;;;;;;;;;;;
2158;;;;;;;;;;;;;;;;;;;;;
2161;;;;;;;;;;;;;;;;;;;;;
2164;;;;;;;;;;;;;;;;;;;;;
2167;;;;;;;;;;;;;;;;;;;;;
2170;;;;;;;;;;;;;;;;;;;;;
2173;;;;;;;;;;;;;;;;;;;;;
2176;;;;;;;;;;;;;;;;;;;;;
2179;;;;;;;;;;;;;;;;;;;;;
2182;;;;;;;;;;;;;;;;;;;;;
2185;;;;;;;;;;;;;;;;;;;;;
2188;;;;;;;;;;;;;;;;;;;;;
2191;;;;;;;;;;;;;;;;;;;;;
2194;;;;;;;;;;;;;;;;;;;;;
2197;;;;;;;;;;;;;;;;;;;;;
2200;;;;;;;;;;;;;;;;;;;;;
2203;;;;;;;;;;;;;;;;;;;;;
2206;;;;;;;;;;;;;;;;;;;;;
2209;;;;;;;;;;;;;;;;;;;;;
2212;;;;;;;;;;;;;;;;;;;;;
2215;;;;;;;;;;;;;;;;;;;;;
2218;;;;;;;;;;;;;;;;;;;;;
2221;;;;;;;;;;;;;;;;;;;;;
2224;;;;;;;;;;;;;;;;;;;;;
2227;;;;;;;;;;;;;;;;;;;;;
2230;;;;;;;;;;;;;;;;;;;;;
2233;;;;;;;;;;;;;;;;;;;;;
2236;;;;;;;;;;;;;;;;;;;;;
2239;;;;;;;;;;;;;;;;;;;;;
2242;;;;;;;;;;;;;;;;;;;;;
2245;;;;;;;;;;;;;;;;;;;;;
2248;;;;;;;;;;;;;;;;;;;;;
2251;;;;;;;;;;;;;;;;;;;;;
2254;;;;;;;;;;;;;;;;;;;;;
2257;;;;;;;;;;;;;;;;;;;;;
2260;;;;;;;;;;;;;;;;;;;;;
2263;;;;;;;;;;;;;;;;;;;;;
2266;;;;;;;;;;;;;;;;;;;;;
2269;;;;;;;;;;;;;;;;;;;;;
2272;;;;;;;;;;;;;;;;;;;;;
2275;;;;;;;;;;;;;;;;;;;;;
2278;;;;;;;;;;;;;;;;;;;;;
2281;;;;;;;;;;;;;;;;;;;;;
2284;;;;;;;;;;;;;;;;;;;;;
2287;;;;;;;;;;;;;;;;;;;;;
2290;;;;;;;;;;;;;;;;;;;;;
2293;;;;;;;;;;;;;;;;;;;;;
2296;;;;;;;;;;;;;;;;;;;;;
2299;;;;;;;;;;;;;;;;;;;;;
2302;;;;;;;;;;;;;;;;;;;;;
2305;;;;;;;;;;;;;;;;;;;;;
2308;;;;;;;;;;;;;;;;;;;;;
2311;;;;;;;;;;;;;;;;;;;;;
2314;;;;;;;;;;;;;;;;;;;;;
2317;;;;;;;;;;;;;;;;;;;;;
2320;;;;;;;;;;;;;;;;;;;;;
2323;;;;;;;;;;;;;;;;;;;;;
2326;;;;;;;;;;;;;;;;;;;;;
2329;;;;;;;;;;;;;;;;;;;;;
2332;;;;;;;;;;;;;;;;;;;;;
2335;;;;;;;;;;;;;;;;;;;;;
2338;;;;;;;;;;;;;;;;;;;;;
2341;;;;;;;;;;;;;;;;;;;;;
2344;;;;;;;;;;;;;;;;;;;;;
2347;;;;;;;;;;;;;;;;;;;;;
2350;;;;;;;;;;;;;;;;;;;;;
2353;;;;;;;;;;;;;;;;;;;;;
2356;;;;;;;;;;;;;;;;;;;;;
2359;;;;;;;;;;;;;;;;;;;;;
2362;;;;;;;;;;;;;;;;;;;;;
2365;;;;;;;;;;;;;;;;;;;;;
2368;;;;;;;;;;;;;;;;;;;;;
2371;;;;;;;;;;;;;;;;;;;;;
2374;;;;;;;;;;;;;;;;;;;;;
2377;;;;;;;;;;;;;;;;;;;;;
2380;;;;;;;;;;;;;;;;;;;;;
2383;;;;;;;;;;;;;;;;;;;;;
2386;;;;;;;;;;;;;;;;;;;;;
2389;;;;;;;;;;;;;;;;;;;;;
2392;;;;;;;;;;;;;;;;;;;;;
2395;;;;;;;;;;;;;;;;;;;;;
2398;;;;;;;;;;;;;;;;;;;;;
2401;;;;;;;;;;;;;;;;;;;;;
2404;;;;;;;;;;;;;;;;;;;;;
2407;;;;;;;;;;;;;;;;;;;;;
2410;;;;;;;;;;;;;;;;;;;;;
2413;;;;;;;;;;;;;;;;;;;;;
2416;;;;;;;;;;;;;;;;;;;;;
2419;;;;;;;;;;;;;;;;;;;;;
2422;;;;;;;;;;;;;;;;;;;;;
2425;;;;;;;;;;;;;;;;;;;;;
2428;;;;;;;;;;;;;;;;;;;;;
2431;;;;;;;;;;;;;;;;;;;;;
2434;;;;;;;;;;;;;;;;;;;;;
2437;;;;;;;;;;;;;;;;;;;;;
2440;;;;;;;;;;;;;;;;;;;;;
2443;;;;;;;;;;;;;;;;;;;;;
2446;;;;;;;;;;;;;;;;;;;;;
2449;;;;;;;;;;;;;;;;;;;;;
2452;;;;;;;;;;;;;;;;;;;;;
2455;;;;;;;;;;;;;;;;;;;;;
2458;;;;;;;;;;;;;;;;;;;;;
2461;;;;;;;;;;;;;;;;;;;;;
2464;;;;;;;;;;;;;;;;;;;;;
2467;;;;;;;;;;;;;;;;;;;;;
2470;;;;;;;;;;;;;;;;;;;;;
2473;;;;;;;;;;;;;;;;;;;;;
2476;;;;;;;;;;;;;;;;;;;;;
2479;;;;;;;;;;;;;;;;;;;;;
2482;;;;;;;;;;;;;;;;;;;;;
2485;;;;;;;;;;;;;;;;;;;;;
2488;;;;;;;;;;;;;;;;;;;;;
2491;;;;;;;;;;;;;;;;;;;;;
2494;;;;;;;;;;;;;;;;;;;;;
2497;;;;;;;;;;;;;;;;;;;;;
2500;;;;;;;;;;;;;;;;;;;;;
2503;;;;;;;;;;;;;;;;;;;;;
2506;;;;;;;;;;;;;;;;;;;;;
2509;;;;;;;;;;;;;;;;;;;;;
2512;;;;;;;;;;;;;;;;;;;;;
2515;;;;;;;;;;;;;;;;;;;;;
2518;;;;;;;;;;;;;;;;;;;;;
2521;;;;;;;;;;;;;;;;;;;;;
2524;;;;;;;;;;;;;;;;;;;;;
2527;;;;;;;;;;;;;;;;;;;;;
2530;;;;;;;;;;;;;;;;;;;;;
2533;;;;;;;;;;;;;;;;;;;;;
2536;;;;;;;;;;;;;;;;;;;;;
2539;;;;;;;;;;;;;;;;;;;;;
2542;;;;;;;;;;;;;;;;;;;;;
2545;;;;;;;;;;;;;;;;;;;;;
2548;;;;;;;;;;;;;;;;;;;;;
2551;;;;;;;;;;;;;;;;;;;;;
2554;;;;;;;;;;;;;;;;;;;;;
2557;;;;;;;;;;;;;;;;;;;;;
2560;;;;;;;;;;;;;;;;;;;;;
2563;;;;;;;;;;;;;;;;;;;;;
2566;;;;;;;;;;;;;;;;;;;;;
2569;;;;;;;;;;;;;;;;;;;;;
2572;;;;;;;;;;;;;;;;;;;;;
2575;;;;;;;;;;;;;;;;;;;;;
2578;;;;;;;;;;;;;;;;;;;;;
2581;;;;;;;;;;;;;;;;;;;;;
2584;;;;;;;;;;;;;;;;;;;;;
2587;;;;;;;;;;;;;;;;;;;;;
2590;;;;;;;;;;;;;;;;;;;;;
2593;;;;;;;;;;;;;;;;;;;;;
2596;;;;;;;;;;;;;;;;;;;;;
2599;;;;;;;;;;;;;;;;;;;;;
2602;;;;;;;;;;;;;;;;;;;;;
2605;;;;;;;;;;;;;;;;;;;;;
2608;;;;;;;;;;;;;;;;;;;;;
2611;;;;;;;;;;;;;;;;;;;;;
2614;;;;;;;;;;;;;;;;;;;;;
2617;;;;;;;;;;;;;;;;;;;;;
2620;;;;;;;;;;;;;;;;;;;;;
2623;;;;;;;;;;;;;;;;;;;;;
2626;;;;;;;;;;;;;;;;;;;;;
2629;;;;;;;;;;;;;;;;;;;;;
2632;;;;;;;;;;;;;;;;;;;;;
2635;;;;;;;;;;;;;;;;;;;;;
2638;;;;;;;;;;;;;;;;;;;;;
2641;;;;;;;;;;;;;;;;;;;;;
2644;;;;;;;;;;;;;;;;;;;;;
2647;;;;;;;;;;;;;;;;;;;;;
2650;;;;;;;;;;;;;;;;;;;;;
2653;;;;;;;;;;;;;;;;;;;;;
2656;;;;;;;;;;;;;;;;;;;;;
2659;;;;;;;;;;;;;;;;;;;;;
2662;;;;;;;;;;;;;;;;;;;;;
2665;;;;;;;;;;;;;;;;;;;;;
2668;;;;;;;;;;;;;;;;;;;;;
2671;;;;;;;;;;;;;;;;;;;;;
2674;;;;;;;;;;;;;;;;;;;;;
2677;;;;;;;;;;;;;;;;;;;;;
2680;;;;;;;;;;;;;;;;;;;;;
2683;;;;;;;;;;;;;;;;;;;;;
2686;;;;;;;;;;;;;;;;;;;;;
2689;;;;;;;;;;;;;;;;;;;;;
2692;;;;;;;;;;;;;;;;;;;;;
2695;;;;;;;;;;;;;;;;;;;;;
2698;;;;;;;;;;;;;;;;;;;;;
2701;;;;;;;;;;;;;;;;;;;;;
2704;;;;;;;;;;;;;;;;;;;;;
2707;;;;;;;;;;;;;;;;;;;;;
2710;;;;;;;;;;;;;;;;;;;;;
2713;;;;;;;;;;;;;;;;;;;;;
2716;;;;;;;;;;;;;;;;;;;;;
2719;;;;;;;;;;;;;;;;;;;;;
2722;;;;;;;;;;;;;;;;;;;;;
2725;;;;;;;;;;;;;;;;;;;;;
2728;;;;;;;;;;;;;;;;;;;;;
2731;;;;;;;;;;;;;;;;;;;;;
2734;;;;;;;;;;;;;;;;;;;;;
2737;;;;;;;;;;;;;;;;;;;;;
2740;;;;;;;;;;;;;;;;;;;;;
2743;;;;;;;;;;;;;;;;;;;;;
2746;;;;;;;;;;;;;;;;;;;;;
2749;;;;;;;;;;;;;;;;;;;;;
2752;;;;;;;;;;;;;;;;;;;;;
2755;;;;;;;;;;;;;;;;;;;;;
2758;;;;;;;;;;;;;;;;;;;;;
2761;;;;;;;;;;;;;;;;;;;;;
2764;;;;;;;;;;;;;;;;;;;;;
2767;;;;;;;;;;;;;;;;;;;;;
2770;;;;;;;;;;;;;;;;;;;;;
2773;;;;;;;;;;;;;;;;;;;;;
2776;;;;;;;;;;;;;;;;;;;;;
2779;;;;;;;;;;;;;;;;;;;;;
2782;;;;;;;;;;;;;;;;;;;;;
2785;;;;;;;;;;;;;;;;;;;;;
2788;;;;;;;;;;;;;;;;;;;;;
2791;;;;;;;;;;;;;;;;;;;;;
2794;;;;;;;;;;;;;;;;;;;;;
2797;;;;;;;;;;;;;;;;;;;;;
2800;;;;;;;;;;;;;;;;;;;;;
2803;;;;;;;;;;;;;;;;;;;;;
2806;;;;;;;;;;;;;;;;;;;;;
2809;;;;;;;;;;;;;;;;;;;;;
2812;;;;;;;;;;;;;;;;;;;;;
2815;;;;;;;;;;;;;;;;;;;;;
2818;;;;;;;;;;;;;;;;;;;;;
2821;;;;;;;;;;;;;;;;;;;;;
2824;;;;;;;;;;;;;;;;;;;;;
2827;;;;;;;;;;;;;;;;;;;;;
2830;;;;;;;;;;;;;;;;;;;;;
2833;;;;;;;;;;;;;;;;;;;;;
2836;;;;;;;;;;;;;;;;;;;;;
2839;;;;;;;;;;;;;;;;;;;;;
2842;;;;;;;;;;;;;;;;;;;;;
2845;;;;;;;;;;;;;;;;;;;;;
2848;;;;;;;;;;;;;;;;;;;;;
2851;;;;;;;;;;;;;;;;;;;;;
2854;;;;;;;;;;;;;;;;;;;;;
2857;;;;;;;;;;;;;;;;;;;;;
2860;;;;;;;;;;;;;;;;;;;;;
2863;;;;;;;;;;;;;;;;;;;;;
2866;;;;;;;;;;;;;;;;;;;;;
2869;;;;;;;;;;;;;;;;;;;;;
2872;;;;;;;;;;;;;;;;;;;;;
2875;;;;;;;;;;;;;;;;;;;;;
2878;;;;;;;;;;;;;;;;;;;;;
2881;;;;;;;;;;;;;;;;;;;;;
2884;;;;;;;;;;;;;;;;;;;;;
2887;;;;;;;;;;;;;;;;;;;;;
2890;;;;;;;;;;;;;;;;;;;;;
2893;;;;;;;;;;;;;;;;;;;;;
2896;;;;;;;;;;;;;;;;;;;;;
2899;;;;;;;;;;;;;;;;;;;;;
2902;;;;;;;;;;;;;;;;;;;;;
2905;;;;;;;;;;;;;;;;;;;;;
2908;;;;;;;;;;;;;;;;;;;;;
2911;;;;;;;;;;;;;;;;;;;;;
2914;;;;;;;;;;;;;;;;;;;;;
2917;;;;;;;;;;;;;;;;;;;;;
2920;;;;;;;;;;;;;;;;;;;;;
2923;;;;;;;;;;;;;;;;;;;;;
2926;;;;;;;;;;;;;;;;;;;;;
2929;;;;;;;;;;;;;;;;;;;;;
2932;;;;;;;;;;;;;;;;;;;;;
2935;;;;;;;;;;;;;;;;;;;;;
2938;;;;;;;;;;;;;;;;;;;;;
2941;;;;;;;;;;;;;;;;;;;;;
2944;;;;;;;;;;;;;;;;;;;;;
2947;;;;;;;;;;;;;;;;;;;;;
2950;;;;;;;;;;;;;;;;;;;;;
2953;;;;;;;;;;;;;;;;;;;;;
2956;;;;;;;;;;;;;;;;;;;;;
2959;;;;;;;;;;;;;;;;;;;;;
2962;;;;;;;;;;;;;;;;;;;;;
2965;;;;;;;;;;;;;;;;;;;;;
2968;;;;;;;;;;;;;;;;;;;;;
2971;;;;;;;;;;;;;;;;;;;;;
2974;;;;;;;;;;;;;;;;;;;;;
2977;;;;;;;;;;;;;;;;;;;;;
2980;;;;;;;;;;;;;;;;;;;;;
2983;;;;;;;;;;;;;;;;;;;;;
2986;;;;;;;;;;;;;;;;;;;;;
2989;;;;;;;;;;;;;;;;;;;;;
2992;;;;;;;;;;;;;;;;;;;;;
2995;;;;;;;;;;;;;;;;;;;;;
2998;;;;;;;;;;;;;;;;;;;;;
3001;;;;;;;;;;;;;;;;;;;;;
3004;;;;;;;;;;;;;;;;;;;;;
3007;;;;;;;;;;;;;;;;;;;;;
3010;;;;;;;;;;;;;;;;;;;;;
3013;;;;;;;;;;;;;;;;;;;;;
3016;;;;;;;;;;;;;;;;;;;;;
3019;;;;;;;;;;;;;;;;;;;;;
3022;;;;;;;;;;;;;;;;;;;;;
3025;;;;;;;;;;;;;;;;;;;;;
3028;;;;;;;;;;;;;;;;;;;;;
3031;;;;;;;;;;;;;;;;;;;;;
3034;;;;;;;;;;;;;;;;;;;;;
3037;;;;;;;;;;;;;;;;;;;;;
3040;;;;;;;;;;;;;;;;;;;;;
3043;;;;;;;;;;;;;;;;;;;;;
3046;;;;;;;;;;;;;;;;;;;;;
3049;;;;;;;;;;;;;;;;;;;;;
3052;;;;;;;;;;;;;;;;;;;;;
3055;;;;;;;;;;;;;;;;;;;;;
3058;;;;;;;;;;;;;;;;;;;;;
3061;;;;;;;;;;;;;;;;;;;;;
3064;;;;;;;;;;;;;;;;;;;;;
3067;;;;;;;;;;;;;;;;;;;;;
3070;;;;;;;;;;;;;;;;;;;;;
3073;;;;;;;;;;;;;;;;;;;;;
3076;;;;;;;;;;;;;;;;;;;;;
3079;;;;;;;;;;;;;;;;;;;;;
3082;;;;;;;;;;;;;;;;;;;;;
3085;;;;;;;;;;;;;;;;;;;;;
3088;;;;;;;;;;;;;;;;;;;;;
3091;;;;;;;;;;;;;;;;;;;;;
3094;;;;;;;;;;;;;;;;;;;;;
3097;;;;;;;;;;;;;;;;;;;;;
3100;;;;;;;;;;;;;;;;;;;;;
3103;;;;;;;;;;;;;;;;;;;;;
3106;;;;;;;;;;;;;;;;;;;;;
3109;;;;;;;;;;;;;;;;;;;;;
3112;;;;;;;;;;;;;;;;;;;;;
3115;;;;;;;;;;;;;;;;;;;;;
3118;;;;;;;;;;;;;;;;;;;;;
3121;;;;;;;;;;;;;;;;;;;;;
3124;;;;;;;;;;;;;;;;;;;;;
3127;;;;;;;;;;;;;;;;;;;;;
3130;;;;;;;;;;;;;;;;;;;;;
3133;;;;;;;;;;;;;;;;;;;;;
3136;;;;;;;;;;;;;;;;;;;;;
3139;;;;;;;;;;;;;;;;;;;;;
3142;;;;;;;;;;;;;;;;;;;;;
3145;;;;;;;;;;;;;;;;;;;;;
3148;;;;;;;;;;;;;;;;;;;;;
3151;;;;;;;;;;;;;;;;;;;;;
3154;;;;;;;;;;;;;;;;;;;;;
3157;;;;;;;;;;;;;;;;;;;;;
3160;;;;;;;;;;;;;;;;;;;;;
3163;;;;;;;;;;;;;;;;;;;;;
3166;;;;;;;;;;;;;;;;;;;;;
3169;;;;;;;;;;;;;;;;;;;;;
3172;;;;;;;;;;;;;;;;;;;;;
3175;;;;;;;;;;;;;;;;;;;;;
3178;;;;;;;;;;;;;;;;;;;;;
3181;;;;;;;;;;;;;;;;;;;;;
3184;;;;;;;;;;;;;;;;;;;;;
3187;;;;;;;;;;;;;;;;;;;;;
3190;;;;;;;;;;;;;;;;;;;;;
3193;;;;;;;;;;;;;;;;;;;;;
3196;;;;;;;;;;;;;;;;;;;;;
3199;;;;;;;;;;;;;;;;;;;;;
3202;;;;;;;;;;;;;;;;;;;;;
3205;;;;;;;;;;;;;;;;;;;;;
3208;;;;;;;;;;;;;;;;;;;;;
3211;;;;;;;;;;;;;;;;;;;;;
3214;;;;;;;;;;;;;;;;;;;;;
3217;;;;;;;;;;;;;;;;;;;;;
3220;;;;;;;;;;;;;;;;;;;;;
3223;;;;;;;;;;;;;;;;;;;;;
3226;;;;;;;;;;;;;;;;;;;;;
3229;;;;;;;;;;;;;;;;;;;;;
3232;;;;;;;;;;;;;;;;;;;;;
3235;;;;;;;;;;;;;;;;;;;;;
3238;;;;;;;;;;;;;;;;;;;;;
3241;;;;;;;;;;;;;;;;;;;;;
3244;;;;;;;;;;;;;;;;;;;;;
3247;;;;;;;;;;;;;;;;;;;;;
3250;;;;;;;;;;;;;;;;;;;;;
3253;;;;;;;;;;;;;;;;;;;;;
3256;;;;;;;;;;;;;;;;;;;;;
3259;;;;;;;;;;;;;;;;;;;;;
3262;;;;;;;;;;;;;;;;;;;;;
3265;;;;;;;;;;;;;;;;;;;;;
3268;;;;;;;;;;;;;;;;;;;;;
3271;;;;;;;;;;;;;;;;;;;;;
3274;;;;;;;;;;;;;;;;;;;;;
3277;;;;;;;;;;;;;;;;;;;;;
3280;;;;;;;;;;;;;;;;;;;;;
3283;;;;;;;;;;;;;;;;;;;;;
3286;;;;;;;;;;;;;;;;;;;;;
3289;;;;;;;;;;;;;;;;;;;;;
3292;;;;;;;;;;;;;;;;;;;;;
3295;;;;;;;;;;;;;;;;;;;;;
3298;;;;;;;;;;;;;;;;;;;;;
3301;;;;;;;;;;;;;;;;;;;;;
3304;;;;;;;;;;;;;;;;;;;;;
3307;;;;;;;;;;;;;;;;;;;;;
3310;;;;;;;;;;;;;;;;;;;;;
3313;;;;;;;;;;;;;;;;;;;;;
3316;;;;;;;;;;;;;;;;;;;;;
3319;;;;;;;;;;;;;;;;;;;;;
3322;;;;;;;;;;;;;;;;;;;;;
3325;;;;;;;;;;;;;;;;;;;;;