File: carbon_superP/N2_2000rpm.txt
Index;Column 2 (V);Column 3 (V);Column 4 (V);Column 5 (V);Column 6 (V/s);Column 7 (V);Time (s);Potential applied (V);WE(1).Current (A);WE(1).Potential (V);Scan;Column 13 (RPM);ω (rad/s);Frequency (Hz);Z' (Ω);-Z'' (Ω);Z (Ω);-Phase (°);Time (s);Y' (Mho);-Y'' (Mho)
1;0;0.01;-1;-0.01;0.01;-0.00244;4554.47;-0.0146484;5.67017e-07;-0.0143768;3;2000;209.44;100000;32.2678;2.49925;32.3644;4.42892;3935.1;0.0308059;0.00238602
4;;;;;;;4555.2;-0.0219727;4.56238e-07;-0.0215729;3;;;50119;31.114;1.66765;31.1587;3.06801;3941.16;0.0320478;0.0017177
7;;;;;;;4555.93;-0.0292969;3.61328e-07;-0.0290588;3;;;25119;31.1353;1.699;31.1817;3.12344;3947.27;0.0320225;0.00174741
10;;;;;;;4556.66;-0.0366211;2.69775e-07;-0.036319;3;;;12589;31.6245;2.0881;31.6934;3.77764;3953.36;0.0314838;0.00207881
13;;;;;;;4557.39;-0.0439453;1.9989e-07;-0.0436157;3;;;6309.6;32.3567;2.78306;32.4762;4.91601;3961.3;0.0306785;0.00263872
16;;;;;;;4558.13;-0.0512695;1.31836e-07;-0.0510559;3;;;3162.3;33.2699;3.88284;33.4957;6.65673;3967.54;0.0296533;0.00346077
19;;;;;;;4558.86;-0.05859375;7.41577e-08;-0.0582886;3;;;1584.9;34.4085;5.75723;34.8869;9.49872;3973.66;0.0282711;0.00473031
22;;;;;;;4559.59;-0.065918;9.15527e-09;-0.0656128;3;;;794.33;35.8921;9.1517;37.0404;14.3044;3979.9;0.0261605;0.00667037
25;;;;;;;4560.32;-0.0732422;-2.70691e-08;-0.072937;3;;;398.11;38.1644;15.3011;41.1175;21.8472;3985.82;0.0225738;0.00905045
28;;;;;;;4561.06;-0.0805664;-9.11865e-08;-0.0802002;3;;;199.53;42.1627;26.0811;49.5774;31.7402;3991.89;0.0171538;0.0106111
31;;;;;;;4561.79;-0.0878906;-1.26129e-07;-0.0873108;3;;;100;49.037;44.3773;66.136;42.1443;3998.12;0.0112111;0.0101458
34;;;;;;;4562.52;-0.0952148;-1.56952e-07;-0.0947876;3;;;50.119;60.4343;75.3346;96.5795;51.263;4004.26;0.00647908;0.00807652
37;;;;;;;4563.25;-0.102539;-1.99585e-07;-0.101959;3;;;25.119;78.4776;128.394;150.479;58.5657;4018.69;0.00346574;0.00567017
40;;;;;;;4563.99;-0.109863;-2.39136e-07;-0.109161;3;;;12.589;106.54;221.284;245.596;64.2911;4026.74;0.00176631;0.00366866
43;;;;;;;4564.72;-0.1171875;-2.79236e-07;-0.116455;3;;;6.3096;149.999;387.5;415.519;68.8388;4036;0.000868775;0.00224435
46;;;;;;;4565.45;-0.124512;-3.11615e-07;-0.123535;3;;;3.1623;218.095;690.265;723.9;72.4657;4045.17;0.000416186;0.00131722
49;;;;;;;4566.18;-0.131836;-3.38135e-07;-0.131439;3;;;1.5849;329.891;1248.28;1291.14;75.1965;4055.08;0.000197891;0.000748804
52;;;;;;;4566.92;-0.13916;-3.59497e-07;-0.138733;3;;;0.79433;525.935;2286.76;2346.46;77.0477;4069.01;9.55227e-05;0.000415331
55;;;;;;;4567.65;-0.146484;-3.95508e-07;-0.146088;3;;;0.39811;886.423;4207.54;4299.9;78.1032;4082.69;4.7943e-05;0.000227568
58;;;;;;;4568.38;-0.153809;-4.40979e-07;-0.153381;3;;;0.19953;1566.97;7764.92;7921.45;78.5909;4100.99;2.49719e-05;0.000123745
61;;;;;;;4569.11;-0.161133;-4.62036e-07;-0.160767;3;;;0.1;3021.36;14344.8;14659.5;78.106;4129.24;1.40593e-05;6.67506e-05
64;;;;;;;4569.85;-0.168457;-4.95605e-07;-0.167999;3;;;;;;;;;;
67;;;;;;;4570.58;-0.175781;-5.18188e-07;-0.175201;3;;;;;;;;;;
70;;;;;;;4571.31;-0.183105;-5.50537e-07;-0.182648;3;;;;;;;;;;
73;;;;;;;4572.04;-0.19043;-5.67932e-07;-0.189911;3;;;;;;;;;;
76;;;;;;;4572.78;-0.197754;-5.97229e-07;-0.197174;3;;;;;;;;;;
79;;;;;;;4573.51;-0.205078;-6.23779e-07;-0.204529;3;;;;;;;;;;
82;;;;;;;4574.24;-0.212402;-6.54907e-07;-0.211731;3;;;;;;;;;;
85;;;;;;;4574.97;-0.219727;-6.87561e-07;-0.219055;3;;;;;;;;;;
88;;;;;;;4575.71;-0.227051;-7.05261e-07;-0.226471;3;;;;;;;;;;
91;;;;;;;4576.44;-0.234375;-7.33948e-07;-0.233704;3;;;;;;;;;;
94;;;;;;;4577.17;-0.241699;-7.5531e-07;-0.240936;3;;;;;;;;;;
97;;;;;;;4577.9;-0.249023;-7.82166e-07;-0.248383;3;;;;;;;;;;
100;;;;;;;4578.63;-0.256348;-8.04749e-07;-0.255646;3;;;;;;;;;;
103;;;;;;;4579.37;-0.263672;-8.35876e-07;-0.263;3;;;;;;;;;;
106;;;;;;;4580.1;-0.270996;-8.65784e-07;-0.270325;3;;;;;;;;;;
109;;;;;;;4580.83;-0.27832;-8.84094e-07;-0.277618;3;;;;;;;;;;
112;;;;;;;4581.56;-0.285645;-9.17664e-07;-0.284882;3;;;;;;;;;;
115;;;;;;;4582.3;-0.292969;-9.44214e-07;-0.292206;3;;;;;;;;;;
118;;;;;;;4583.03;-0.300293;-9.62219e-07;-0.299622;3;;;;;;;;;;
121;;;;;;;4583.76;-0.307617;-9.99451e-07;-0.306885;3;;;;;;;;;;
124;;;;;;;4584.49;-0.314941;-1.02966e-06;-0.314148;3;;;;;;;;;;
127;;;;;;;4585.23;-0.322266;-1.06293e-06;-0.321381;3;;;;;;;;;;
130;;;;;;;4585.96;-0.32959;-1.08734e-06;-0.328735;3;;;;;;;;;;
133;;;;;;;4586.69;-0.336914;-1.13464e-06;-0.336029;3;;;;;;;;;;
136;;;;;;;4587.42;-0.344238;-1.16119e-06;-0.343414;3;;;;;;;;;;
139;;;;;;;4588.16;-0.3515625;-1.19995e-06;-0.3508;3;;;;;;;;;;
142;;;;;;;4588.89;-0.358887;-1.24146e-06;-0.357971;3;;;;;;;;;;
145;;;;;;;4589.62;-0.366211;-1.27441e-06;-0.365326;3;;;;;;;;;;
148;;;;;;;4590.35;-0.373535;-1.32782e-06;-0.37265;3;;;;;;;;;;
151;;;;;;;4591.09;-0.380859;-1.36169e-06;-0.379852;3;;;;;;;;;;
154;;;;;;;4591.82;-0.388184;-1.41479e-06;-0.387238;3;;;;;;;;;;
157;;;;;;;4592.55;-0.395508;-1.45447e-06;-0.394562;3;;;;;;;;;;
160;;;;;;;4593.28;-0.402832;-1.49445e-06;-0.401794;3;;;;;;;;;;
163;;;;;;;4594.02;-0.410156;-1.5451e-06;-0.409149;3;;;;;;;;;;
166;;;;;;;4594.75;-0.41748;-1.57898e-06;-0.416534;3;;;;;;;;;;
169;;;;;;;4595.48;-0.424805;-1.62964e-06;-0.423767;3;;;;;;;;;;
172;;;;;;;4596.21;-0.432129;-1.66504e-06;-0.431122;3;;;;;;;;;;
175;;;;;;;4596.95;-0.439453;-1.70288e-06;-0.438263;3;;;;;;;;;;
178;;;;;;;4597.68;-0.446777;-1.73309e-06;-0.445648;3;;;;;;;;;;
181;;;;;;;4598.41;-0.454102;-1.75873e-06;-0.452942;3;;;;;;;;;;
184;;;;;;;4599.14;-0.461426;-1.79504e-06;-0.460358;3;;;;;;;;;;
187;;;;;;;4599.88;-0.46875;-1.82007e-06;-0.46759;3;;;;;;;;;;
190;;;;;;;4600.61;-0.476074;-1.84906e-06;-0.474915;3;;;;;;;;;;
193;;;;;;;4601.34;-0.483398;-1.86157e-06;-0.482239;3;;;;;;;;;;
196;;;;;;;4602.07;-0.490723;-1.89026e-06;-0.489471;3;;;;;;;;;;
199;;;;;;;4602.8;-0.498047;-1.90704e-06;-0.496887;3;;;;;;;;;;
202;;;;;;;4603.54;-0.505371;-1.92322e-06;-0.504028;3;;;;;;;;;;
205;;;;;;;4604.27;-0.512695;-1.95374e-06;-0.511322;3;;;;;;;;;;
208;;;;;;;4605;-0.52002;-1.97266e-06;-0.518799;3;;;;;;;;;;
211;;;;;;;4605.73;-0.527344;-2.00012e-06;-0.526062;3;;;;;;;;;;
214;;;;;;;4606.47;-0.534668;-2.02515e-06;-0.533356;3;;;;;;;;;;
217;;;;;;;4607.2;-0.541992;-2.05109e-06;-0.54068;3;;;;;;;;;;
220;;;;;;;4607.93;-0.549316;-2.08069e-06;-0.547943;3;;;;;;;;;;
223;;;;;;;4608.66;-0.556641;-2.10724e-06;-0.555267;3;;;;;;;;;;
226;;;;;;;4609.4;-0.563965;-2.14142e-06;-0.562561;3;;;;;;;;;;
229;;;;;;;4610.13;-0.571289;-2.17773e-06;-0.569855;3;;;;;;;;;;
232;;;;;;;4610.86;-0.578613;-2.22351e-06;-0.57724;3;;;;;;;;;;
235;;;;;;;4611.59;-0.5859375;-2.2406e-06;-0.584564;3;;;;;;;;;;
238;;;;;;;4612.33;-0.593262;-2.28058e-06;-0.591827;3;;;;;;;;;;
241;;;;;;;4613.06;-0.600586;-2.3175e-06;-0.599121;3;;;;;;;;;;
244;;;;;;;4613.79;-0.60791;-2.36115e-06;-0.606384;3;;;;;;;;;;
247;;;;;;;4614.52;-0.615234;-2.39166e-06;-0.613678;3;;;;;;;;;;
250;;;;;;;4615.26;-0.622559;-2.4292e-06;-0.621124;3;;;;;;;;;;
253;;;;;;;4615.99;-0.629883;-2.47711e-06;-0.628326;3;;;;;;;;;;
256;;;;;;;4616.72;-0.637207;-2.51129e-06;-0.635712;3;;;;;;;;;;
259;;;;;;;4617.45;-0.644531;-2.55188e-06;-0.642975;3;;;;;;;;;;
262;;;;;;;4618.19;-0.651855;-2.58728e-06;-0.65033;3;;;;;;;;;;
265;;;;;;;4618.92;-0.65918;-2.63031e-06;-0.657623;3;;;;;;;;;;
268;;;;;;;4619.65;-0.666504;-2.66663e-06;-0.664948;3;;;;;;;;;;
271;;;;;;;4620.38;-0.673828;-2.70599e-06;-0.672211;3;;;;;;;;;;
274;;;;;;;4621.12;-0.681152;-2.74933e-06;-0.679565;3;;;;;;;;;;
277;;;;;;;4621.85;-0.688477;-2.77588e-06;-0.68689;3;;;;;;;;;;
280;;;;;;;4622.58;-0.695801;-2.81525e-06;-0.694183;3;;;;;;;;;;
283;;;;;;;4623.31;-0.703125;-2.84149e-06;-0.701447;3;;;;;;;;;;
286;;;;;;;4624.05;-0.710449;-2.87323e-06;-0.708862;3;;;;;;;;;;
289;;;;;;;4624.78;-0.717773;-2.91107e-06;-0.716095;3;;;;;;;;;;
292;;;;;;;4625.51;-0.725098;-2.94312e-06;-0.72348;3;;;;;;;;;;
295;;;;;;;4626.24;-0.732422;-2.995e-06;-0.730865;3;;;;;;;;;;
298;;;;;;;4626.97;-0.739746;-3.01941e-06;-0.738495;3;;;;;;;;;;
301;;;;;;;4627.71;-0.74707;-3.05511e-06;-0.745819;3;;;;;;;;;;
304;;;;;;;4628.44;-0.754395;-3.09204e-06;-0.753784;3;;;;;;;;;;
307;;;;;;;4629.17;-0.761719;-3.14087e-06;-0.761108;3;;;;;;;;;;
310;;;;;;;4629.9;-0.769043;-3.18237e-06;-0.768738;3;;;;;;;;;;
313;;;;;;;4630.64;-0.776367;-3.23975e-06;-0.775452;3;;;;;;;;;;
316;;;;;;;4631.37;-0.783691;-3.28522e-06;-0.783081;3;;;;;;;;;;
319;;;;;;;4632.1;-0.791016;-3.33344e-06;-0.7901;3;;;;;;;;;;
322;;;;;;;4632.83;-0.79834;-3.40088e-06;-0.797424;3;;;;;;;;;;
325;;;;;;;4633.57;-0.805664;-3.44086e-06;-0.804749;3;;;;;;;;;;
328;;;;;;;4634.3;-0.812988;-3.4967e-06;-0.811768;3;;;;;;;;;;
331;;;;;;;4635.03;-0.8203125;-3.55682e-06;-0.819702;3;;;;;;;;;;
334;;;;;;;4635.76;-0.827637;-3.60352e-06;-0.827026;3;;;;;;;;;;
337;;;;;;;4636.5;-0.834961;-3.67432e-06;-0.834351;3;;;;;;;;;;
340;;;;;;;4637.23;-0.842285;-3.74451e-06;-0.84137;3;;;;;;;;;;
343;;;;;;;4637.96;-0.849609;-3.78418e-06;-0.848694;3;;;;;;;;;;
346;;;;;;;4638.69;-0.856934;-3.85742e-06;-0.856323;3;;;;;;;;;;
349;;;;;;;4639.43;-0.864258;-3.91541e-06;-0.863342;3;;;;;;;;;;
352;;;;;;;4640.16;-0.871582;-3.96423e-06;-0.870972;3;;;;;;;;;;
355;;;;;;;4640.89;-0.878906;-4.02222e-06;-0.877991;3;;;;;;;;;;
358;;;;;;;4641.62;-0.88623;-4.10156e-06;-0.885315;3;;;;;;;;;;
361;;;;;;;4642.36;-0.893555;-4.15344e-06;-0.892639;3;;;;;;;;;;
364;;;;;;;4643.09;-0.900879;-4.21448e-06;-0.899963;3;;;;;;;;;;
367;;;;;;;4643.82;-0.908203;-4.28772e-06;-0.907593;3;;;;;;;;;;
370;;;;;;;4644.55;-0.915527;-4.33044e-06;-0.914917;3;;;;;;;;;;
373;;;;;;;4645.29;-0.922852;-4.41284e-06;-0.922241;3;;;;;;;;;;
376;;;;;;;4646.02;-0.930176;-4.48608e-06;-0.929871;3;;;;;;;;;;
379;;;;;;;4646.75;-0.9375;-4.54712e-06;-0.937195;3;;;;;;;;;;
382;;;;;;;4647.48;-0.944824;-4.60205e-06;-0.944824;3;;;;;;;;;;
385;;;;;;;4648.22;-0.952148;-4.6875E-06;-0.951843;3;;;;;;;;;;
388;;;;;;;4648.95;-0.959473;-4.75464e-06;-0.958862;3;;;;;;;;;;
391;;;;;;;4649.68;-0.966797;-4.81262e-06;-0.966187;3;;;;;;;;;;
394;;;;;;;4650.41;-0.974121;-4.89197e-06;-0.973206;3;;;;;;;;;;
397;;;;;;;4651.14;-0.981445;-4.96521e-06;-0.98114;3;;;;;;;;;;
400;;;;;;;4651.88;-0.98877;-5.05676e-06;-0.988159;3;;;;;;;;;;
403;;;;;;;4652.61;-0.996094;-5.12695e-06;-0.996399;3;;;;;;;;;;
406;;;;;;;4653.34;-0.998535;-4.14429e-06;-0.99762;3;;;;;;;;;;
409;;;;;;;4654.07;-0.991211;-2.8067e-06;-0.990601;3;;;;;;;;;;
412;;;;;;;4654.81;-0.983887;-2.09381e-06;-0.982971;3;;;;;;;;;;
415;;;;;;;4655.54;-0.9765625;-1.63361e-06;-0.975037;3;;;;;;;;;;
418;;;;;;;4656.27;-0.969238;-1.27716e-06;-0.968323;3;;;;;;;;;;
421;;;;;;;4657;-0.961914;-1.00891e-06;-0.960999;3;;;;;;;;;;
424;;;;;;;4657.74;-0.95459;-7.75452e-07;-0.953979;3;;;;;;;;;;
427;;;;;;;4658.47;-0.947266;-5.88379e-07;-0.94635;3;;;;;;;;;;
430;;;;;;;4659.2;-0.939941;-4.30603e-07;-0.939636;3;;;;;;;;;;
433;;;;;;;4659.93;-0.932617;-2.88696e-07;-0.932312;3;;;;;;;;;;
436;;;;;;;4660.67;-0.925293;-1.76086e-07;-0.924683;3;;;;;;;;;;
439;;;;;;;4661.4;-0.917969;-7.2937e-08;-0.917664;3;;;;;;;;;;
442;;;;;;;4662.13;-0.910645;-1.2207e-09;-0.910034;3;;;;;;;;;;
445;;;;;;;4662.86;-0.90332;9.29871e-08;-0.90332;3;;;;;;;;;;
448;;;;;;;4663.6;-0.895996;1.50665e-07;-0.895386;3;;;;;;;;;;
451;;;;;;;4664.33;-0.888672;2.22046e-07;-0.888672;3;;;;;;;;;;
454;;;;;;;4665.06;-0.881348;2.76367e-07;-0.880432;3;;;;;;;;;;
457;;;;;;;4665.79;-0.874023;3.25012e-07;-0.873413;3;;;;;;;;;;
460;;;;;;;4666.53;-0.866699;3.70483e-07;-0.865784;3;;;;;;;;;;
463;;;;;;;4667.26;-0.859375;4.0802e-07;-0.858459;3;;;;;;;;;;
466;;;;;;;4667.99;-0.852051;4.58984e-07;-0.85144;3;;;;;;;;;;
469;;;;;;;4668.72;-0.844727;4.79736e-07;-0.843506;3;;;;;;;;;;
472;;;;;;;4669.46;-0.837402;5.23376e-07;-0.836792;3;;;;;;;;;;
475;;;;;;;4670.19;-0.830078;5.49927e-07;-0.828857;3;;;;;;;;;;
478;;;;;;;4670.92;-0.822754;5.79529e-07;-0.821533;3;;;;;;;;;;
481;;;;;;;4671.65;-0.81543;5.96924e-07;-0.814819;3;;;;;;;;;;
484;;;;;;;4672.39;-0.808105;6.18591e-07;-0.80719;3;;;;;;;;;;
487;;;;;;;4673.12;-0.800781;6.45142e-07;-0.800171;3;;;;;;;;;;
490;;;;;;;4673.85;-0.793457;6.57959e-07;-0.792542;3;;;;;;;;;;
493;;;;;;;4674.58;-0.786133;6.73828e-07;-0.784912;3;;;;;;;;;;
496;;;;;;;4675.31;-0.778809;6.9397e-07;-0.778198;3;;;;;;;;;;
499;;;;;;;4676.05;-0.771484;7.18689e-07;-0.770874;3;;;;;;;;;;
502;;;;;;;4676.78;-0.76416;7.2937e-07;-0.763245;3;;;;;;;;;;
505;;;;;;;4677.51;-0.756836;7.37915e-07;-0.75592;3;;;;;;;;;;
508;;;;;;;4678.24;-0.749512;7.61719e-07;-0.748291;3;;;;;;;;;;
511;;;;;;;4678.98;-0.7421875;7.547e-07;-0.741211;3;;;;;;;;;;
514;;;;;;;4679.71;-0.734863;7.70264e-07;-0.733734;3;;;;;;;;;;
517;;;;;;;4680.44;-0.727539;7.76672e-07;-0.726501;3;;;;;;;;;;
520;;;;;;;4681.17;-0.720215;7.9834e-07;-0.719055;3;;;;;;;;;;
523;;;;;;;4681.91;-0.712891;8.00781e-07;-0.711823;3;;;;;;;;;;
526;;;;;;;4682.64;-0.705566;8.02307e-07;-0.704529;3;;;;;;;;;;
529;;;;;;;4683.37;-0.698242;8.21228e-07;-0.697144;3;;;;;;;;;;
532;;;;;;;4684.1;-0.690918;8.2428e-07;-0.689911;3;;;;;;;;;;
535;;;;;;;4684.84;-0.683594;8.38013e-07;-0.682526;3;;;;;;;;;;
538;;;;;;;4685.57;-0.67627;8.35266e-07;-0.675201;3;;;;;;;;;;
541;;;;;;;4686.3;-0.668945;8.47473e-07;-0.667938;3;;;;;;;;;;
544;;;;;;;4687.03;-0.661621;8.54187e-07;-0.660614;3;;;;;;;;;;
547;;;;;;;4687.77;-0.654297;8.62122e-07;-0.653381;3;;;;;;;;;;
550;;;;;;;4688.5;-0.646973;8.71887e-07;-0.646057;3;;;;;;;;;;
553;;;;;;;4689.23;-0.639648;8.74329e-07;-0.638641;3;;;;;;;;;;
556;;;;;;;4689.96;-0.632324;8.77991e-07;-0.631348;3;;;;;;;;;;
559;;;;;;;4690.7;-0.625;8.78906e-07;-0.623932;3;;;;;;;;;;
562;;;;;;;4691.43;-0.617676;8.90808e-07;-0.616608;3;;;;;;;;;;
565;;;;;;;4692.16;-0.610352;8.90503e-07;-0.609253;3;;;;;;;;;;
568;;;;;;;4692.89;-0.603027;8.87146e-07;-0.60199;3;;;;;;;;;;
571;;;;;;;4693.63;-0.595703;8.87451e-07;-0.594635;3;;;;;;;;;;
574;;;;;;;4694.36;-0.588379;8.87756e-07;-0.587433;3;;;;;;;;;;
577;;;;;;;4695.09;-0.581055;8.92944e-07;-0.580261;3;;;;;;;;;;
580;;;;;;;4695.82;-0.57373;8.88062e-07;-0.572784;3;;;;;;;;;;
583;;;;;;;4696.56;-0.566406;8.88367e-07;-0.565521;3;;;;;;;;;;
586;;;;;;;4697.29;-0.559082;8.97827e-07;-0.558075;3;;;;;;;;;;
589;;;;;;;4698.02;-0.551758;8.99048e-07;-0.550903;3;;;;;;;;;;
592;;;;;;;4698.75;-0.544434;9.04846e-07;-0.543457;3;;;;;;;;;;
595;;;;;;;4699.48;-0.537109;9.00879e-07;-0.536224;3;;;;;;;;;;
598;;;;;;;4700.22;-0.529785;9.06372e-07;-0.528961;3;;;;;;;;;;
601;;;;;;;4700.95;-0.522461;9.00879e-07;-0.521576;3;;;;;;;;;;
604;;;;;;;4701.68;-0.515137;9.0271e-07;-0.514252;3;;;;;;;;;;
607;;;;;;;4702.41;-0.5078125;9.16443e-07;-0.507019;3;;;;;;;;;;
610;;;;;;;4703.15;-0.500488;9.09119e-07;-0.499512;3;;;;;;;;;;
613;;;;;;;4703.88;-0.493164;9.14307e-07;-0.49231;3;;;;;;;;;;
616;;;;;;;4704.61;-0.48584;9.09729e-07;-0.485046;3;;;;;;;;;;
619;;;;;;;4705.34;-0.478516;9.19189e-07;-0.477753;3;;;;;;;;;;
622;;;;;;;4706.08;-0.471191;9.21021e-07;-0.470276;3;;;;;;;;;;
625;;;;;;;4706.81;-0.463867;9.37195e-07;-0.463257;3;;;;;;;;;;
628;;;;;;;4707.54;-0.456543;9.47571e-07;-0.45578;3;;;;;;;;;;
631;;;;;;;4708.27;-0.449219;9.49707e-07;-0.448456;3;;;;;;;;;;
634;;;;;;;4709.01;-0.441895;9.61304e-07;-0.441162;3;;;;;;;;;;
637;;;;;;;4709.74;-0.43457;9.6283e-07;-0.433807;3;;;;;;;;;;
640;;;;;;;4710.47;-0.427246;9.75037e-07;-0.426727;3;;;;;;;;;;
643;;;;;;;4711.2;-0.419922;9.88464e-07;-0.41922;3;;;;;;;;;;
646;;;;;;;4711.94;-0.412598;1.00403e-06;-0.411896;3;;;;;;;;;;
649;;;;;;;4712.67;-0.405273;1.02203e-06;-0.404541;3;;;;;;;;;;
652;;;;;;;4713.4;-0.397949;1.02783e-06;-0.3974;3;;;;;;;;;;
655;;;;;;;4714.13;-0.390625;1.05042e-06;-0.390015;3;;;;;;;;;;
658;;;;;;;4714.87;-0.383301;1.05957e-06;-0.382629;3;;;;;;;;;;
661;;;;;;;4715.6;-0.375977;1.07056e-06;-0.375366;3;;;;;;;;;;
664;;;;;;;4716.33;-0.368652;1.09314e-06;-0.368011;3;;;;;;;;;;
667;;;;;;;4717.06;-0.361328;1.10779e-06;-0.360657;3;;;;;;;;;;
670;;;;;;;4717.8;-0.354004;1.1261e-06;-0.353394;3;;;;;;;;;;
673;;;;;;;4718.53;-0.34668;1.13007e-06;-0.3461;3;;;;;;;;;;
676;;;;;;;4719.26;-0.339355;1.15021e-06;-0.338837;3;;;;;;;;;;
679;;;;;;;4719.99;-0.332031;1.15417e-06;-0.331482;3;;;;;;;;;;
682;;;;;;;4720.73;-0.324707;1.17615e-06;-0.324127;3;;;;;;;;;;
685;;;;;;;4721.46;-0.317383;1.1911e-06;-0.316864;3;;;;;;;;;;
688;;;;;;;4722.19;-0.310059;1.21063e-06;-0.309509;3;;;;;;;;;;
691;;;;;;;4722.92;-0.302734;1.21918e-06;-0.302307;3;;;;;;;;;;
694;;;;;;;4723.65;-0.29541;1.22498e-06;-0.294952;3;;;;;;;;;;
697;;;;;;;4724.39;-0.288086;1.23749e-06;-0.287659;3;;;;;;;;;;
700;;;;;;;4725.12;-0.280762;1.24725e-06;-0.280396;3;;;;;;;;;;
703;;;;;;;4725.85;-0.2734375;1.26465e-06;-0.27301;3;;;;;;;;;;
706;;;;;;;4726.58;-0.266113;1.27045e-06;-0.265656;3;;;;;;;;;;
709;;;;;;;4727.32;-0.258789;1.2793e-06;-0.258362;3;;;;;;;;;;
712;;;;;;;4728.05;-0.251465;1.29791e-06;-0.251068;3;;;;;;;;;;
715;;;;;;;4728.78;-0.244141;1.30585e-06;-0.243713;3;;;;;;;;;;
718;;;;;;;4729.51;-0.236816;1.31134e-06;-0.236298;3;;;;;;;;;;
721;;;;;;;4730.25;-0.229492;1.31836e-06;-0.229095;3;;;;;;;;;;
724;;;;;;;4730.98;-0.222168;1.33392e-06;-0.22171;3;;;;;;;;;;
727;;;;;;;4731.71;-0.214844;1.33514e-06;-0.214508;3;;;;;;;;;;
730;;;;;;;4732.44;-0.20752;1.35315e-06;-0.207153;3;;;;;;;;;;
733;;;;;;;4733.18;-0.200195;1.35315e-06;-0.199768;3;;;;;;;;;;
736;;;;;;;4733.91;-0.192871;1.36108e-06;-0.192505;3;;;;;;;;;;
739;;;;;;;4734.64;-0.185547;1.38245e-06;-0.185242;3;;;;;;;;;;
742;;;;;;;4735.37;-0.178223;1.38e-06;-0.177948;3;;;;;;;;;;
745;;;;;;;4736.11;-0.170898;1.39618e-06;-0.170593;3;;;;;;;;;;
748;;;;;;;4736.84;-0.163574;1.40472e-06;-0.163361;3;;;;;;;;;;
751;;;;;;;4737.57;-0.15625;1.41693e-06;-0.156006;3;;;;;;;;;;
754;;;;;;;4738.3;-0.148926;1.43616e-06;-0.148712;3;;;;;;;;;;
757;;;;;;;4739.04;-0.141602;1.43829e-06;-0.141418;3;;;;;;;;;;
760;;;;;;;4739.77;-0.134277;1.45203e-06;-0.133972;3;;;;;;;;;;
763;;;;;;;4740.5;-0.126953;1.45325e-06;-0.126801;3;;;;;;;;;;
766;;;;;;;4741.23;-0.119629;1.46698e-06;-0.119446;3;;;;;;;;;;
769;;;;;;;4741.97;-0.112305;1.4679e-06;-0.112;3;;;;;;;;;;
772;;;;;;;4742.7;-0.10498;1.48376e-06;-0.104919;3;;;;;;;;;;
775;;;;;;;4743.43;-0.09765625;1.49445e-06;-0.0974426;3;;;;;;;;;;
778;;;;;;;4744.16;-0.090332;1.50146e-06;-0.090271;3;;;;;;;;;;
781;;;;;;;4744.9;-0.0830078;1.521e-06;-0.0829468;3;;;;;;;;;;
784;;;;;;;4745.63;-0.0756836;1.521e-06;-0.0756226;3;;;;;;;;;;
787;;;;;;;4746.36;-0.0683594;1.53839e-06;-0.0682678;3;;;;;;;;;;
790;;;;;;;4747.09;-0.0610352;1.54724e-06;-0.0610657;3;;;;;;;;;;
793;;;;;;;4747.82;-0.0537109;1.55945e-06;-0.0535889;3;;;;;;;;;;
796;;;;;;;4748.56;-0.0463867;1.5744e-06;-0.0459778;3;;;;;;;;;;
799;;;;;;;4749.29;-0.0390625;1.586e-06;-0.0389465;3;;;;;;;;;;
802;;;;;;;4750.02;-0.0317383;1.60767e-06;-0.031424;3;;;;;;;;;;
805;;;;;;;4750.75;-0.0244141;1.61285e-06;-0.0241272;3;;;;;;;;;;
808;;;;;;;4751.49;-0.0170898;1.63696e-06;-0.0167389;3;;;;;;;;;;
811;;;;;;;4752.22;-0.009765625;1.64246e-06;-0.0094696;3;;;;;;;;;;
814;;;;;;;4752.95;-0.00244141;1.6684e-06;-0.00222778;3;;;;;;;;;;
817;;;;;;;4753.68;0.00488281;1.68152e-06;0.00513306;3;;;;;;;;;;
820;;;;;;;4754.42;0.012207;1.71143e-06;0.012558;3;;;;;;;;;;
823;;;;;;;4755.15;0.00488281;1.10657e-06;0.00513916;3;;;;;;;;;;
826;;;;;;;4755.88;-0.00244141;8.43811e-07;-0.00224609;3;;;;;;;;;;
829;;;;;;;4756.61;-0.009765625;6.81763e-07;-0.00937805;3;;;;;;;;;;
832;;;;;;;;;;;;;;;;;;;;;
835;;;;;;;;;;;;;;;;;;;;;
838;;;;;;;;;;;;;;;;;;;;;
841;;;;;;;;;;;;;;;;;;;;;
844;;;;;;;;;;;;;;;;;;;;;
847;;;;;;;;;;;;;;;;;;;;;
850;;;;;;;;;;;;;;;;;;;;;
853;;;;;;;;;;;;;;;;;;;;;
856;;;;;;;;;;;;;;;;;;;;;
859;;;;;;;;;;;;;;;;;;;;;
862;;;;;;;;;;;;;;;;;;;;;
865;;;;;;;;;;;;;;;;;;;;;
868;;;;;;;;;;;;;;;;;;;;;
871;;;;;;;;;;;;;;;;;;;;;
874;;;;;;;;;;;;;;;;;;;;;
877;;;;;;;;;;;;;;;;;;;;;
880;;;;;;;;;;;;;;;;;;;;;
883;;;;;;;;;;;;;;;;;;;;;
886;;;;;;;;;;;;;;;;;;;;;
889;;;;;;;;;;;;;;;;;;;;;
892;;;;;;;;;;;;;;;;;;;;;
895;;;;;;;;;;;;;;;;;;;;;
898;;;;;;;;;;;;;;;;;;;;;
901;;;;;;;;;;;;;;;;;;;;;
904;;;;;;;;;;;;;;;;;;;;;
907;;;;;;;;;;;;;;;;;;;;;
910;;;;;;;;;;;;;;;;;;;;;
913;;;;;;;;;;;;;;;;;;;;;
916;;;;;;;;;;;;;;;;;;;;;
919;;;;;;;;;;;;;;;;;;;;;
922;;;;;;;;;;;;;;;;;;;;;
925;;;;;;;;;;;;;;;;;;;;;
928;;;;;;;;;;;;;;;;;;;;;
931;;;;;;;;;;;;;;;;;;;;;
934;;;;;;;;;;;;;;;;;;;;;
937;;;;;;;;;;;;;;;;;;;;;
940;;;;;;;;;;;;;;;;;;;;;
943;;;;;;;;;;;;;;;;;;;;;
946;;;;;;;;;;;;;;;;;;;;;
949;;;;;;;;;;;;;;;;;;;;;
952;;;;;;;;;;;;;;;;;;;;;
955;;;;;;;;;;;;;;;;;;;;;
958;;;;;;;;;;;;;;;;;;;;;
961;;;;;;;;;;;;;;;;;;;;;
964;;;;;;;;;;;;;;;;;;;;;
967;;;;;;;;;;;;;;;;;;;;;
970;;;;;;;;;;;;;;;;;;;;;
973;;;;;;;;;;;;;;;;;;;;;
976;;;;;;;;;;;;;;;;;;;;;
979;;;;;;;;;;;;;;;;;;;;;
982;;;;;;;;;;;;;;;;;;;;;
985;;;;;;;;;;;;;;;;;;;;;
988;;;;;;;;;;;;;;;;;;;;;
991;;;;;;;;;;;;;;;;;;;;;
994;;;;;;;;;;;;;;;;;;;;;
997;;;;;;;;;;;;;;;;;;;;;
1000;;;;;;;;;;;;;;;;;;;;;
1003;;;;;;;;;;;;;;;;;;;;;
1006;;;;;;;;;;;;;;;;;;;;;
1009;;;;;;;;;;;;;;;;;;;;;
1012;;;;;;;;;;;;;;;;;;;;;
1015;;;;;;;;;;;;;;;;;;;;;
1018;;;;;;;;;;;;;;;;;;;;;
1021;;;;;;;;;;;;;;;;;;;;;
1024;;;;;;;;;;;;;;;;;;;;;
1027;;;;;;;;;;;;;;;;;;;;;
1030;;;;;;;;;;;;;;;;;;;;;
1033;;;;;;;;;;;;;;;;;;;;;
1036;;;;;;;;;;;;;;;;;;;;;
1039;;;;;;;;;;;;;;;;;;;;;
1042;;;;;;;;;;;;;;;;;;;;;
1045;;;;;;;;;;;;;;;;;;;;;
1048;;;;;;;;;;;;;;;;;;;;;
1051;;;;;;;;;;;;;;;;;;;;;
1054;;;;;;;;;;;;;;;;;;;;;
1057;;;;;;;;;;;;;;;;;;;;;
1060;;;;;;;;;;;;;;;;;;;;;
1063;;;;;;;;;;;;;;;;;;;;;
1066;;;;;;;;;;;;;;;;;;;;;
1069;;;;;;;;;;;;;;;;;;;;;
1072;;;;;;;;;;;;;;;;;;;;;
1075;;;;;;;;;;;;;;;;;;;;;
1078;;;;;;;;;;;;;;;;;;;;;
1081;;;;;;;;;;;;;;;;;;;;;
1084;;;;;;;;;;;;;;;;;;;;;
1087;;;;;;;;;;;;;;;;;;;;;
1090;;;;;;;;;;;;;;;;;;;;;
1093;;;;;;;;;;;;;;;;;;;;;
1096;;;;;;;;;;;;;;;;;;;;;
1099;;;;;;;;;;;;;;;;;;;;;
1102;;;;;;;;;;;;;;;;;;;;;
1105;;;;;;;;;;;;;;;;;;;;;
1108;;;;;;;;;;;;;;;;;;;;;
1111;;;;;;;;;;;;;;;;;;;;;
1114;;;;;;;;;;;;;;;;;;;;;
1117;;;;;;;;;;;;;;;;;;;;;
1120;;;;;;;;;;;;;;;;;;;;;
1123;;;;;;;;;;;;;;;;;;;;;
1126;;;;;;;;;;;;;;;;;;;;;
1129;;;;;;;;;;;;;;;;;;;;;
1132;;;;;;;;;;;;;;;;;;;;;
1135;;;;;;;;;;;;;;;;;;;;;
1138;;;;;;;;;;;;;;;;;;;;;
1141;;;;;;;;;;;;;;;;;;;;;
1144;;;;;;;;;;;;;;;;;;;;;
1147;;;;;;;;;;;;;;;;;;;;;
1150;;;;;;;;;;;;;;;;;;;;;
1153;;;;;;;;;;;;;;;;;;;;;
1156;;;;;;;;;;;;;;;;;;;;;
1159;;;;;;;;;;;;;;;;;;;;;
1162;;;;;;;;;;;;;;;;;;;;;
1165;;;;;;;;;;;;;;;;;;;;;
1168;;;;;;;;;;;;;;;;;;;;;
1171;;;;;;;;;;;;;;;;;;;;;
1174;;;;;;;;;;;;;;;;;;;;;
1177;;;;;;;;;;;;;;;;;;;;;
1180;;;;;;;;;;;;;;;;;;;;;
1183;;;;;;;;;;;;;;;;;;;;;
1186;;;;;;;;;;;;;;;;;;;;;
1189;;;;;;;;;;;;;;;;;;;;;
1192;;;;;;;;;;;;;;;;;;;;;
1195;;;;;;;;;;;;;;;;;;;;;
1198;;;;;;;;;;;;;;;;;;;;;
1201;;;;;;;;;;;;;;;;;;;;;
1204;;;;;;;;;;;;;;;;;;;;;
1207;;;;;;;;;;;;;;;;;;;;;
1210;;;;;;;;;;;;;;;;;;;;;
1213;;;;;;;;;;;;;;;;;;;;;
1216;;;;;;;;;;;;;;;;;;;;;
1219;;;;;;;;;;;;;;;;;;;;;
1222;;;;;;;;;;;;;;;;;;;;;
1225;;;;;;;;;;;;;;;;;;;;;
1228;;;;;;;;;;;;;;;;;;;;;
1231;;;;;;;;;;;;;;;;;;;;;
1234;;;;;;;;;;;;;;;;;;;;;
1237;;;;;;;;;;;;;;;;;;;;;
1240;;;;;;;;;;;;;;;;;;;;;
1243;;;;;;;;;;;;;;;;;;;;;
1246;;;;;;;;;;;;;;;;;;;;;
1249;;;;;;;;;;;;;;;;;;;;;
1252;;;;;;;;;;;;;;;;;;;;;
1255;;;;;;;;;;;;;;;;;;;;;
1258;;;;;;;;;;;;;;;;;;;;;
1261;;;;;;;;;;;;;;;;;;;;;
1264;;;;;;;;;;;;;;;;;;;;;
1267;;;;;;;;;;;;;;;;;;;;;
1270;;;;;;;;;;;;;;;;;;;;;
1273;;;;;;;;;;;;;;;;;;;;;
1276;;;;;;;;;;;;;;;;;;;;;
1279;;;;;;;;;;;;;;;;;;;;;
1282;;;;;;;;;;;;;;;;;;;;;
1285;;;;;;;;;;;;;;;;;;;;;
1288;;;;;;;;;;;;;;;;;;;;;
1291;;;;;;;;;;;;;;;;;;;;;
1294;;;;;;;;;;;;;;;;;;;;;
1297;;;;;;;;;;;;;;;;;;;;;
1300;;;;;;;;;;;;;;;;;;;;;
1303;;;;;;;;;;;;;;;;;;;;;
1306;;;;;;;;;;;;;;;;;;;;;
1309;;;;;;;;;;;;;;;;;;;;;
1312;;;;;;;;;;;;;;;;;;;;;
1315;;;;;;;;;;;;;;;;;;;;;
1318;;;;;;;;;;;;;;;;;;;;;
1321;;;;;;;;;;;;;;;;;;;;;
1324;;;;;;;;;;;;;;;;;;;;;
1327;;;;;;;;;;;;;;;;;;;;;
1330;;;;;;;;;;;;;;;;;;;;;
1333;;;;;;;;;;;;;;;;;;;;;
1336;;;;;;;;;;;;;;;;;;;;;
1339;;;;;;;;;;;;;;;;;;;;;
1342;;;;;;;;;;;;;;;;;;;;;
1345;;;;;;;;;;;;;;;;;;;;;
1348;;;;;;;;;;;;;;;;;;;;;
1351;;;;;;;;;;;;;;;;;;;;;
1354;;;;;;;;;;;;;;;;;;;;;
1357;;;;;;;;;;;;;;;;;;;;;
1360;;;;;;;;;;;;;;;;;;;;;
1363;;;;;;;;;;;;;;;;;;;;;
1366;;;;;;;;;;;;;;;;;;;;;
1369;;;;;;;;;;;;;;;;;;;;;
1372;;;;;;;;;;;;;;;;;;;;;
1375;;;;;;;;;;;;;;;;;;;;;
1378;;;;;;;;;;;;;;;;;;;;;
1381;;;;;;;;;;;;;;;;;;;;;
1384;;;;;;;;;;;;;;;;;;;;;
1387;;;;;;;;;;;;;;;;;;;;;
1390;;;;;;;;;;;;;;;;;;;;;
1393;;;;;;;;;;;;;;;;;;;;;
1396;;;;;;;;;;;;;;;;;;;;;
1399;;;;;;;;;;;;;;;;;;;;;
1402;;;;;;;;;;;;;;;;;;;;;
1405;;;;;;;;;;;;;;;;;;;;;
1408;;;;;;;;;;;;;;;;;;;;;
1411;;;;;;;;;;;;;;;;;;;;;
1414;;;;;;;;;;;;;;;;;;;;;
1417;;;;;;;;;;;;;;;;;;;;;
1420;;;;;;;;;;;;;;;;;;;;;
1423;;;;;;;;;;;;;;;;;;;;;
1426;;;;;;;;;;;;;;;;;;;;;
1429;;;;;;;;;;;;;;;;;;;;;
1432;;;;;;;;;;;;;;;;;;;;;
1435;;;;;;;;;;;;;;;;;;;;;
1438;;;;;;;;;;;;;;;;;;;;;
1441;;;;;;;;;;;;;;;;;;;;;
1444;;;;;;;;;;;;;;;;;;;;;
1447;;;;;;;;;;;;;;;;;;;;;
1450;;;;;;;;;;;;;;;;;;;;;
1453;;;;;;;;;;;;;;;;;;;;;
1456;;;;;;;;;;;;;;;;;;;;;
1459;;;;;;;;;;;;;;;;;;;;;
1462;;;;;;;;;;;;;;;;;;;;;
1465;;;;;;;;;;;;;;;;;;;;;
1468;;;;;;;;;;;;;;;;;;;;;
1471;;;;;;;;;;;;;;;;;;;;;
1474;;;;;;;;;;;;;;;;;;;;;
1477;;;;;;;;;;;;;;;;;;;;;
1480;;;;;;;;;;;;;;;;;;;;;
1483;;;;;;;;;;;;;;;;;;;;;
1486;;;;;;;;;;;;;;;;;;;;;
1489;;;;;;;;;;;;;;;;;;;;;
1492;;;;;;;;;;;;;;;;;;;;;
1495;;;;;;;;;;;;;;;;;;;;;
1498;;;;;;;;;;;;;;;;;;;;;
1501;;;;;;;;;;;;;;;;;;;;;
1504;;;;;;;;;;;;;;;;;;;;;
1507;;;;;;;;;;;;;;;;;;;;;
1510;;;;;;;;;;;;;;;;;;;;;
1513;;;;;;;;;;;;;;;;;;;;;
1516;;;;;;;;;;;;;;;;;;;;;
1519;;;;;;;;;;;;;;;;;;;;;
1522;;;;;;;;;;;;;;;;;;;;;
1525;;;;;;;;;;;;;;;;;;;;;
1528;;;;;;;;;;;;;;;;;;;;;
1531;;;;;;;;;;;;;;;;;;;;;
1534;;;;;;;;;;;;;;;;;;;;;
1537;;;;;;;;;;;;;;;;;;;;;
1540;;;;;;;;;;;;;;;;;;;;;
1543;;;;;;;;;;;;;;;;;;;;;
1546;;;;;;;;;;;;;;;;;;;;;
1549;;;;;;;;;;;;;;;;;;;;;
1552;;;;;;;;;;;;;;;;;;;;;
1555;;;;;;;;;;;;;;;;;;;;;
1558;;;;;;;;;;;;;;;;;;;;;
1561;;;;;;;;;;;;;;;;;;;;;
1564;;;;;;;;;;;;;;;;;;;;;
1567;;;;;;;;;;;;;;;;;;;;;
1570;;;;;;;;;;;;;;;;;;;;;
1573;;;;;;;;;;;;;;;;;;;;;
1576;;;;;;;;;;;;;;;;;;;;;
1579;;;;;;;;;;;;;;;;;;;;;
1582;;;;;;;;;;;;;;;;;;;;;
1585;;;;;;;;;;;;;;;;;;;;;
1588;;;;;;;;;;;;;;;;;;;;;
1591;;;;;;;;;;;;;;;;;;;;;
1594;;;;;;;;;;;;;;;;;;;;;
1597;;;;;;;;;;;;;;;;;;;;;
1600;;;;;;;;;;;;;;;;;;;;;
1603;;;;;;;;;;;;;;;;;;;;;
1606;;;;;;;;;;;;;;;;;;;;;
1609;;;;;;;;;;;;;;;;;;;;;
1612;;;;;;;;;;;;;;;;;;;;;
1615;;;;;;;;;;;;;;;;;;;;;
1618;;;;;;;;;;;;;;;;;;;;;
1621;;;;;;;;;;;;;;;;;;;;;
1624;;;;;;;;;;;;;;;;;;;;;
1627;;;;;;;;;;;;;;;;;;;;;
1630;;;;;;;;;;;;;;;;;;;;;
1633;;;;;;;;;;;;;;;;;;;;;
1636;;;;;;;;;;;;;;;;;;;;;
1639;;;;;;;;;;;;;;;;;;;;;
1642;;;;;;;;;;;;;;;;;;;;;
1645;;;;;;;;;;;;;;;;;;;;;
1648;;;;;;;;;;;;;;;;;;;;;
1651;;;;;;;;;;;;;;;;;;;;;
1654;;;;;;;;;;;;;;;;;;;;;
1657;;;;;;;;;;;;;;;;;;;;;
1660;;;;;;;;;;;;;;;;;;;;;
1663;;;;;;;;;;;;;;;;;;;;;
1666;;;;;;;;;;;;;;;;;;;;;
1669;;;;;;;;;;;;;;;;;;;;;
1672;;;;;;;;;;;;;;;;;;;;;
1675;;;;;;;;;;;;;;;;;;;;;
1678;;;;;;;;;;;;;;;;;;;;;
1681;;;;;;;;;;;;;;;;;;;;;
1684;;;;;;;;;;;;;;;;;;;;;
1687;;;;;;;;;;;;;;;;;;;;;
1690;;;;;;;;;;;;;;;;;;;;;
1693;;;;;;;;;;;;;;;;;;;;;
1696;;;;;;;;;;;;;;;;;;;;;
1699;;;;;;;;;;;;;;;;;;;;;
1702;;;;;;;;;;;;;;;;;;;;;
1705;;;;;;;;;;;;;;;;;;;;;
1708;;;;;;;;;;;;;;;;;;;;;
1711;;;;;;;;;;;;;;;;;;;;;
1714;;;;;;;;;;;;;;;;;;;;;
1717;;;;;;;;;;;;;;;;;;;;;
1720;;;;;;;;;;;;;;;;;;;;;
1723;;;;;;;;;;;;;;;;;;;;;
1726;;;;;;;;;;;;;;;;;;;;;
1729;;;;;;;;;;;;;;;;;;;;;
1732;;;;;;;;;;;;;;;;;;;;;
1735;;;;;;;;;;;;;;;;;;;;;
1738;;;;;;;;;;;;;;;;;;;;;
1741;;;;;;;;;;;;;;;;;;;;;
1744;;;;;;;;;;;;;;;;;;;;;
1747;;;;;;;;;;;;;;;;;;;;;
1750;;;;;;;;;;;;;;;;;;;;;
1753;;;;;;;;;;;;;;;;;;;;;
1756;;;;;;;;;;;;;;;;;;;;;
1759;;;;;;;;;;;;;;;;;;;;;
1762;;;;;;;;;;;;;;;;;;;;;
1765;;;;;;;;;;;;;;;;;;;;;
1768;;;;;;;;;;;;;;;;;;;;;
1771;;;;;;;;;;;;;;;;;;;;;
1774;;;;;;;;;;;;;;;;;;;;;
1777;;;;;;;;;;;;;;;;;;;;;
1780;;;;;;;;;;;;;;;;;;;;;
1783;;;;;;;;;;;;;;;;;;;;;
1786;;;;;;;;;;;;;;;;;;;;;
1789;;;;;;;;;;;;;;;;;;;;;
1792;;;;;;;;;;;;;;;;;;;;;
1795;;;;;;;;;;;;;;;;;;;;;
1798;;;;;;;;;;;;;;;;;;;;;
1801;;;;;;;;;;;;;;;;;;;;;
1804;;;;;;;;;;;;;;;;;;;;;
1807;;;;;;;;;;;;;;;;;;;;;
1810;;;;;;;;;;;;;;;;;;;;;
1813;;;;;;;;;;;;;;;;;;;;;
1816;;;;;;;;;;;;;;;;;;;;;
1819;;;;;;;;;;;;;;;;;;;;;
1822;;;;;;;;;;;;;;;;;;;;;
1825;;;;;;;;;;;;;;;;;;;;;
1828;;;;;;;;;;;;;;;;;;;;;
1831;;;;;;;;;;;;;;;;;;;;;
1834;;;;;;;;;;;;;;;;;;;;;
1837;;;;;;;;;;;;;;;;;;;;;
1840;;;;;;;;;;;;;;;;;;;;;
1843;;;;;;;;;;;;;;;;;;;;;
1846;;;;;;;;;;;;;;;;;;;;;
1849;;;;;;;;;;;;;;;;;;;;;
1852;;;;;;;;;;;;;;;;;;;;;
1855;;;;;;;;;;;;;;;;;;;;;
1858;;;;;;;;;;;;;;;;;;;;;
1861;;;;;;;;;;;;;;;;;;;;;
1864;;;;;;;;;;;;;;;;;;;;;
1867;;;;;;;;;;;;;;;;;;;;;
1870;;;;;;;;;;;;;;;;;;;;;
1873;;;;;;;;;;;;;;;;;;;;;
1876;;;;;;;;;;;;;;;;;;;;;
1879;;;;;;;;;;;;;;;;;;;;;
1882;;;;;;;;;;;;;;;;;;;;;
1885;;;;;;;;;;;;;;;;;;;;;
1888;;;;;;;;;;;;;;;;;;;;;
1891;;;;;;;;;;;;;;;;;;;;;
1894;;;;;;;;;;;;;;;;;;;;;
1897;;;;;;;;;;;;;;;;;;;;;
1900;;;;;;;;;;;;;;;;;;;;;
1903;;;;;;;;;;;;;;;;;;;;;
1906;;;;;;;;;;;;;;;;;;;;;
1909;;;;;;;;;;;;;;;;;;;;;
1912;;;;;;;;;;;;;;;;;;;;;
1915;;;;;;;;;;;;;;;;;;;;;
1918;;;;;;;;;;;;;;;;;;;;;
1921;;;;;;;;;;;;;;;;;;;;;
1924;;;;;;;;;;;;;;;;;;;;;
1927;;;;;;;;;;;;;;;;;;;;;
1930;;;;;;;;;;;;;;;;;;;;;
1933;;;;;;;;;;;;;;;;;;;;;
1936;;;;;;;;;;;;;;;;;;;;;
1939;;;;;;;;;;;;;;;;;;;;;
1942;;;;;;;;;;;;;;;;;;;;;
1945;;;;;;;;;;;;;;;;;;;;;
1948;;;;;;;;;;;;;;;;;;;;;
1951;;;;;;;;;;;;;;;;;;;;;
1954;;;;;;;;;;;;;;;;;;;;;
1957;;;;;;;;;;;;;;;;;;;;;
1960;;;;;;;;;;;;;;;;;;;;;
1963;;;;;;;;;;;;;;;;;;;;;
1966;;;;;;;;;;;;;;;;;;;;;
1969;;;;;;;;;;;;;;;;;;;;;
1972;;;;;;;;;;;;;;;;;;;;;
1975;;;;;;;;;;;;;;;;;;;;;
1978;;;;;;;;;;;;;;;;;;;;;
1981;;;;;;;;;;;;;;;;;;;;;
1984;;;;;;;;;;;;;;;;;;;;;
1987;;;;;;;;;;;;;;;;;;;;;
1990;;;;;;;;;;;;;;;;;;;;;
1993;;;;;;;;;;;;;;;;;;;;;
1996;;;;;;;;;;;;;;;;;;;;;
1999;;;;;;;;;;;;;;;;;;;;;
2002;;;;;;;;;;;;;;;;;;;;;
2005;;;;;;;;;;;;;;;;;;;;;
2008;;;;;;;;;;;;;;;;;;;;;
2011;;;;;;;;;;;;;;;;;;;;;
2014;;;;;;;;;;;;;;;;;;;;;
2017;;;;;;;;;;;;;;;;;;;;;
2020;;;;;;;;;;;;;;;;;;;;;
2023;;;;;;;;;;;;;;;;;;;;;
2026;;;;;;;;;;;;;;;;;;;;;
2029;;;;;;;;;;;;;;;;;;;;;
2032;;;;;;;;;;;;;;;;;;;;;
2035;;;;;;;;;;;;;;;;;;;;;
2038;;;;;;;;;;;;;;;;;;;;;
2041;;;;;;;;;;;;;;;;;;;;;
2044;;;;;;;;;;;;;;;;;;;;;
2047;;;;;;;;;;;;;;;;;;;;;
2050;;;;;;;;;;;;;;;;;;;;;
2053;;;;;;;;;;;;;;;;;;;;;
2056;;;;;;;;;;;;;;;;;;;;;
2059;;;;;;;;;;;;;;;;;;;;;
2062;;;;;;;;;;;;;;;;;;;;;
2065;;;;;;;;;;;;;;;;;;;;;
2068;;;;;;;;;;;;;;;;;;;;;
2071;;;;;;;;;;;;;;;;;;;;;
2074;;;;;;;;;;;;;;;;;;;;;
2077;;;;;;;;;;;;;;;;;;;;;
2080;;;;;;;;;;;;;;;;;;;;;
2083;;;;;;;;;;;;;;;;;;;;;
2086;;;;;;;;;;;;;;;;;;;;;
2089;;;;;;;;;;;;;;;;;;;;;
2092;;;;;;;;;;;;;;;;;;;;;
2095;;;;;;;;;;;;;;;;;;;;;
2098;;;;;;;;;;;;;;;;;;;;;
2101;;;;;;;;;;;;;;;;;;;;;
2104;;;;;;;;;;;;;;;;;;;;;
2107;;;;;;;;;;;;;;;;;;;;;
2110;;;;;;;;;;;;;;;;;;;;;
2113;;;;;;;;;;;;;;;;;;;;;
2116;;;;;;;;;;;;;;;;;;;;;
2119;;;;;;;;;;;;;;;;;;;;;
2122;;;;;;;;;;;;;;;;;;;;;
2125;;;;;;;;;;;;;;;;;;;;;
2128;;;;;;;;;;;;;;;;;;;;;
2131;;;;;;;;;;;;;;;;;;;;;
2134;;;;;;;;;;;;;;;;;;;;;
2137;;;;;;;;;;;;;;;;;;;;;
2140;;;;;;;;;;;;;;;;;;;;;
2143;;;;;;;;;;;;;;;;;;;;;
2146;;;;;;;;;;;;;;;;;;;;;
2149;;;;;;;;;;;;;;;;;;;;;
2152;;;;;;;;;;;;;;;;;;;;;
2155;;;;;;;;;;;;;;;;;;;;;
2158;;;;;;;;;;;;;;;;;;;;;
2161;;;;;;;;;;;;;;;;;;;;;
2164;;;;;;;;;;;;;;;;;;;;;
2167;;;;;;;;;;;;;;;;;;;;;
2170;;;;;;;;;;;;;;;;;;;;;
2173;;;;;;;;;;;;;;;;;;;;;
2176;;;;;;;;;;;;;;;;;;;;;
2179;;;;;;;;;;;;;;;;;;;;;
2182;;;;;;;;;;;;;;;;;;;;;
2185;;;;;;;;;;;;;;;;;;;;;
2188;;;;;;;;;;;;;;;;;;;;;
2191;;;;;;;;;;;;;;;;;;;;;
2194;;;;;;;;;;;;;;;;;;;;;
2197;;;;;;;;;;;;;;;;;;;;;
2200;;;;;;;;;;;;;;;;;;;;;
2203;;;;;;;;;;;;;;;;;;;;;
2206;;;;;;;;;;;;;;;;;;;;;
2209;;;;;;;;;;;;;;;;;;;;;
2212;;;;;;;;;;;;;;;;;;;;;
2215;;;;;;;;;;;;;;;;;;;;;
2218;;;;;;;;;;;;;;;;;;;;;
2221;;;;;;;;;;;;;;;;;;;;;
2224;;;;;;;;;;;;;;;;;;;;;
2227;;;;;;;;;;;;;;;;;;;;;
2230;;;;;;;;;;;;;;;;;;;;;
2233;;;;;;;;;;;;;;;;;;;;;
2236;;;;;;;;;;;;;;;;;;;;;
2239;;;;;;;;;;;;;;;;;;;;;
2242;;;;;;;;;;;;;;;;;;;;;
2245;;;;;;;;;;;;;;;;;;;;;
2248;;;;;;;;;;;;;;;;;;;;;
2251;;;;;;;;;;;;;;;;;;;;;
2254;;;;;;;;;;;;;;;;;;;;;
2257;;;;;;;;;;;;;;;;;;;;;
2260;;;;;;;;;;;;;;;;;;;;;
2263;;;;;;;;;;;;;;;;;;;;;
2266;;;;;;;;;;;;;;;;;;;;;
2269;;;;;;;;;;;;;;;;;;;;;
2272;;;;;;;;;;;;;;;;;;;;;
2275;;;;;;;;;;;;;;;;;;;;;
2278;;;;;;;;;;;;;;;;;;;;;
2281;;;;;;;;;;;;;;;;;;;;;
2284;;;;;;;;;;;;;;;;;;;;;
2287;;;;;;;;;;;;;;;;;;;;;
2290;;;;;;;;;;;;;;;;;;;;;
2293;;;;;;;;;;;;;;;;;;;;;
2296;;;;;;;;;;;;;;;;;;;;;
2299;;;;;;;;;;;;;;;;;;;;;
2302;;;;;;;;;;;;;;;;;;;;;
2305;;;;;;;;;;;;;;;;;;;;;
2308;;;;;;;;;;;;;;;;;;;;;
2311;;;;;;;;;;;;;;;;;;;;;
2314;;;;;;;;;;;;;;;;;;;;;
2317;;;;;;;;;;;;;;;;;;;;;
2320;;;;;;;;;;;;;;;;;;;;;
2323;;;;;;;;;;;;;;;;;;;;;
2326;;;;;;;;;;;;;;;;;;;;;
2329;;;;;;;;;;;;;;;;;;;;;
2332;;;;;;;;;;;;;;;;;;;;;
2335;;;;;;;;;;;;;;;;;;;;;
2338;;;;;;;;;;;;;;;;;;;;;
2341;;;;;;;;;;;;;;;;;;;;;
2344;;;;;;;;;;;;;;;;;;;;;
2347;;;;;;;;;;;;;;;;;;;;;
2350;;;;;;;;;;;;;;;;;;;;;
2353;;;;;;;;;;;;;;;;;;;;;
2356;;;;;;;;;;;;;;;;;;;;;
2359;;;;;;;;;;;;;;;;;;;;;
2362;;;;;;;;;;;;;;;;;;;;;
2365;;;;;;;;;;;;;;;;;;;;;
2368;;;;;;;;;;;;;;;;;;;;;
2371;;;;;;;;;;;;;;;;;;;;;
2374;;;;;;;;;;;;;;;;;;;;;
2377;;;;;;;;;;;;;;;;;;;;;
2380;;;;;;;;;;;;;;;;;;;;;
2383;;;;;;;;;;;;;;;;;;;;;
2386;;;;;;;;;;;;;;;;;;;;;
2389;;;;;;;;;;;;;;;;;;;;;
2392;;;;;;;;;;;;;;;;;;;;;
2395;;;;;;;;;;;;;;;;;;;;;
2398;;;;;;;;;;;;;;;;;;;;;
2401;;;;;;;;;;;;;;;;;;;;;
2404;;;;;;;;;;;;;;;;;;;;;
2407;;;;;;;;;;;;;;;;;;;;;
2410;;;;;;;;;;;;;;;;;;;;;
2413;;;;;;;;;;;;;;;;;;;;;
2416;;;;;;;;;;;;;;;;;;;;;
2419;;;;;;;;;;;;;;;;;;;;;
2422;;;;;;;;;;;;;;;;;;;;;
2425;;;;;;;;;;;;;;;;;;;;;
2428;;;;;;;;;;;;;;;;;;;;;
2431;;;;;;;;;;;;;;;;;;;;;
2434;;;;;;;;;;;;;;;;;;;;;
2437;;;;;;;;;;;;;;;;;;;;;
2440;;;;;;;;;;;;;;;;;;;;;
2443;;;;;;;;;;;;;;;;;;;;;
2446;;;;;;;;;;;;;;;;;;;;;
2449;;;;;;;;;;;;;;;;;;;;;
2452;;;;;;;;;;;;;;;;;;;;;
2455;;;;;;;;;;;;;;;;;;;;;
2458;;;;;;;;;;;;;;;;;;;;;
2461;;;;;;;;;;;;;;;;;;;;;
2464;;;;;;;;;;;;;;;;;;;;;
2467;;;;;;;;;;;;;;;;;;;;;
2470;;;;;;;;;;;;;;;;;;;;;
2473;;;;;;;;;;;;;;;;;;;;;
2476;;;;;;;;;;;;;;;;;;;;;
2479;;;;;;;;;;;;;;;;;;;;;
2482;;;;;;;;;;;;;;;;;;;;;
2485;;;;;;;;;;;;;;;;;;;;;
2488;;;;;;;;;;;;;;;;;;;;;
2491;;;;;;;;;;;;;;;;;;;;;
2494;;;;;;;;;;;;;;;;;;;;;
2497;;;;;;;;;;;;;;;;;;;;;
2500;;;;;;;;;;;;;;;;;;;;;
2503;;;;;;;;;;;;;;;;;;;;;
2506;;;;;;;;;;;;;;;;;;;;;
2509;;;;;;;;;;;;;;;;;;;;;
2512;;;;;;;;;;;;;;;;;;;;;
2515;;;;;;;;;;;;;;;;;;;;;
2518;;;;;;;;;;;;;;;;;;;;;
2521;;;;;;;;;;;;;;;;;;;;;
2524;;;;;;;;;;;;;;;;;;;;;
2527;;;;;;;;;;;;;;;;;;;;;
2530;;;;;;;;;;;;;;;;;;;;;
2533;;;;;;;;;;;;;;;;;;;;;
2536;;;;;;;;;;;;;;;;;;;;;
2539;;;;;;;;;;;;;;;;;;;;;
2542;;;;;;;;;;;;;;;;;;;;;
2545;;;;;;;;;;;;;;;;;;;;;
2548;;;;;;;;;;;;;;;;;;;;;
2551;;;;;;;;;;;;;;;;;;;;;
2554;;;;;;;;;;;;;;;;;;;;;
2557;;;;;;;;;;;;;;;;;;;;;
2560;;;;;;;;;;;;;;;;;;;;;
2563;;;;;;;;;;;;;;;;;;;;;
2566;;;;;;;;;;;;;;;;;;;;;
2569;;;;;;;;;;;;;;;;;;;;;
2572;;;;;;;;;;;;;;;;;;;;;
2575;;;;;;;;;;;;;;;;;;;;;
2578;;;;;;;;;;;;;;;;;;;;;
2581;;;;;;;;;;;;;;;;;;;;;
2584;;;;;;;;;;;;;;;;;;;;;
2587;;;;;;;;;;;;;;;;;;;;;
2590;;;;;;;;;;;;;;;;;;;;;
2593;;;;;;;;;;;;;;;;;;;;;
2596;;;;;;;;;;;;;;;;;;;;;
2599;;;;;;;;;;;;;;;;;;;;;
2602;;;;;;;;;;;;;;;;;;;;;
2605;;;;;;;;;;;;;;;;;;;;;
2608;;;;;;;;;;;;;;;;;;;;;
2611;;;;;;;;;;;;;;;;;;;;;
2614;;;;;;;;;;;;;;;;;;;;;
2617;;;;;;;;;;;;;;;;;;;;;
2620;;;;;;;;;;;;;;;;;;;;;
2623;;;;;;;;;;;;;;;;;;;;;
2626;;;;;;;;;;;;;;;;;;;;;
2629;;;;;;;;;;;;;;;;;;;;;
2632;;;;;;;;;;;;;;;;;;;;;
2635;;;;;;;;;;;;;;;;;;;;;
2638;;;;;;;;;;;;;;;;;;;;;
2641;;;;;;;;;;;;;;;;;;;;;
2644;;;;;;;;;;;;;;;;;;;;;
2647;;;;;;;;;;;;;;;;;;;;;
2650;;;;;;;;;;;;;;;;;;;;;
2653;;;;;;;;;;;;;;;;;;;;;
2656;;;;;;;;;;;;;;;;;;;;;
2659;;;;;;;;;;;;;;;;;;;;;
2662;;;;;;;;;;;;;;;;;;;;;
2665;;;;;;;;;;;;;;;;;;;;;
2668;;;;;;;;;;;;;;;;;;;;;
2671;;;;;;;;;;;;;;;;;;;;;
2674;;;;;;;;;;;;;;;;;;;;;
2677;;;;;;;;;;;;;;;;;;;;;
2680;;;;;;;;;;;;;;;;;;;;;
2683;;;;;;;;;;;;;;;;;;;;;
2686;;;;;;;;;;;;;;;;;;;;;
2689;;;;;;;;;;;;;;;;;;;;;
2692;;;;;;;;;;;;;;;;;;;;;
2695;;;;;;;;;;;;;;;;;;;;;
2698;;;;;;;;;;;;;;;;;;;;;
2701;;;;;;;;;;;;;;;;;;;;;
2704;;;;;;;;;;;;;;;;;;;;;
2707;;;;;;;;;;;;;;;;;;;;;
2710;;;;;;;;;;;;;;;;;;;;;
2713;;;;;;;;;;;;;;;;;;;;;
2716;;;;;;;;;;;;;;;;;;;;;
2719;;;;;;;;;;;;;;;;;;;;;
2722;;;;;;;;;;;;;;;;;;;;;
2725;;;;;;;;;;;;;;;;;;;;;
2728;;;;;;;;;;;;;;;;;;;;;
2731;;;;;;;;;;;;;;;;;;;;;
2734;;;;;;;;;;;;;;;;;;;;;
2737;;;;;;;;;;;;;;;;;;;;;
2740;;;;;;;;;;;;;;;;;;;;;
2743;;;;;;;;;;;;;;;;;;;;;
2746;;;;;;;;;;;;;;;;;;;;;
2749;;;;;;;;;;;;;;;;;;;;;
2752;;;;;;;;;;;;;;;;;;;;;
2755;;;;;;;;;;;;;;;;;;;;;
2758;;;;;;;;;;;;;;;;;;;;;
2761;;;;;;;;;;;;;;;;;;;;;
2764;;;;;;;;;;;;;;;;;;;;;
2767;;;;;;;;;;;;;;;;;;;;;
2770;;;;;;;;;;;;;;;;;;;;;
2773;;;;;;;;;;;;;;;;;;;;;
2776;;;;;;;;;;;;;;;;;;;;;
2779;;;;;;;;;;;;;;;;;;;;;
2782;;;;;;;;;;;;;;;;;;;;;
2785;;;;;;;;;;;;;;;;;;;;;
2788;;;;;;;;;;;;;;;;;;;;;
2791;;;;;;;;;;;;;;;;;;;;;
2794;;;;;;;;;;;;;;;;;;;;;
2797;;;;;;;;;;;;;;;;;;;;;
2800;;;;;;;;;;;;;;;;;;;;;
2803;;;;;;;;;;;;;;;;;;;;;
2806;;;;;;;;;;;;;;;;;;;;;
2809;;;;;;;;;;;;;;;;;;;;;
2812;;;;;;;;;;;;;;;;;;;;;
2815;;;;;;;;;;;;;;;;;;;;;
2818;;;;;;;;;;;;;;;;;;;;;
2821;;;;;;;;;;;;;;;;;;;;;
2824;;;;;;;;;;;;;;;;;;;;;
2827;;;;;;;;;;;;;;;;;;;;;
2830;;;;;;;;;;;;;;;;;;;;;
2833;;;;;;;;;;;;;;;;;;;;;
2836;;;;;;;;;;;;;;;;;;;;;
2839;;;;;;;;;;;;;;;;;;;;;
2842;;;;;;;;;;;;;;;;;;;;;
2845;;;;;;;;;;;;;;;;;;;;;
2848;;;;;;;;;;;;;;;;;;;;;
2851;;;;;;;;;;;;;;;;;;;;;
2854;;;;;;;;;;;;;;;;;;;;;
2857;;;;;;;;;;;;;;;;;;;;;
2860;;;;;;;;;;;;;;;;;;;;;
2863;;;;;;;;;;;;;;;;;;;;;
2866;;;;;;;;;;;;;;;;;;;;;
2869;;;;;;;;;;;;;;;;;;;;;
2872;;;;;;;;;;;;;;;;;;;;;
2875;;;;;;;;;;;;;;;;;;;;;
2878;;;;;;;;;;;;;;;;;;;;;
2881;;;;;;;;;;;;;;;;;;;;;
2884;;;;;;;;;;;;;;;;;;;;;
2887;;;;;;;;;;;;;;;;;;;;;
2890;;;;;;;;;;;;;;;;;;;;;
2893;;;;;;;;;;;;;;;;;;;;;
2896;;;;;;;;;;;;;;;;;;;;;
2899;;;;;;;;;;;;;;;;;;;;;
2902;;;;;;;;;;;;;;;;;;;;;
2905;;;;;;;;;;;;;;;;;;;;;
2908;;;;;;;;;;;;;;;;;;;;;
2911;;;;;;;;;;;;;;;;;;;;;
2914;;;;;;;;;;;;;;;;;;;;;
2917;;;;;;;;;;;;;;;;;;;;;
2920;;;;;;;;;;;;;;;;;;;;;
2923;;;;;;;;;;;;;;;;;;;;;
2926;;;;;;;;;;;;;;;;;;;;;
2929;;;;;;;;;;;;;;;;;;;;;
2932;;;;;;;;;;;;;;;;;;;;;
2935;;;;;;;;;;;;;;;;;;;;;
2938;;;;;;;;;;;;;;;;;;;;;
2941;;;;;;;;;;;;;;;;;;;;;
2944;;;;;;;;;;;;;;;;;;;;;
2947;;;;;;;;;;;;;;;;;;;;;
2950;;;;;;;;;;;;;;;;;;;;;
2953;;;;;;;;;;;;;;;;;;;;;
2956;;;;;;;;;;;;;;;;;;;;;
2959;;;;;;;;;;;;;;;;;;;;;
2962;;;;;;;;;;;;;;;;;;;;;
2965;;;;;;;;;;;;;;;;;;;;;
2968;;;;;;;;;;;;;;;;;;;;;
2971;;;;;;;;;;;;;;;;;;;;;
2974;;;;;;;;;;;;;;;;;;;;;
2977;;;;;;;;;;;;;;;;;;;;;
2980;;;;;;;;;;;;;;;;;;;;;
2983;;;;;;;;;;;;;;;;;;;;;
2986;;;;;;;;;;;;;;;;;;;;;
2989;;;;;;;;;;;;;;;;;;;;;
2992;;;;;;;;;;;;;;;;;;;;;
2995;;;;;;;;;;;;;;;;;;;;;
2998;;;;;;;;;;;;;;;;;;;;;
3001;;;;;;;;;;;;;;;;;;;;;
3004;;;;;;;;;;;;;;;;;;;;;
3007;;;;;;;;;;;;;;;;;;;;;
3010;;;;;;;;;;;;;;;;;;;;;
3013;;;;;;;;;;;;;;;;;;;;;
3016;;;;;;;;;;;;;;;;;;;;;
3019;;;;;;;;;;;;;;;;;;;;;
3022;;;;;;;;;;;;;;;;;;;;;
3025;;;;;;;;;;;;;;;;;;;;;
3028;;;;;;;;;;;;;;;;;;;;;
3031;;;;;;;;;;;;;;;;;;;;;
3034;;;;;;;;;;;;;;;;;;;;;
3037;;;;;;;;;;;;;;;;;;;;;
3040;;;;;;;;;;;;;;;;;;;;;
3043;;;;;;;;;;;;;;;;;;;;;
3046;;;;;;;;;;;;;;;;;;;;;
3049;;;;;;;;;;;;;;;;;;;;;
3052;;;;;;;;;;;;;;;;;;;;;
3055;;;;;;;;;;;;;;;;;;;;;
3058;;;;;;;;;;;;;;;;;;;;;
3061;;;;;;;;;;;;;;;;;;;;;
3064;;;;;;;;;;;;;;;;;;;;;
3067;;;;;;;;;;;;;;;;;;;;;
3070;;;;;;;;;;;;;;;;;;;;;
3073;;;;;;;;;;;;;;;;;;;;;
3076;;;;;;;;;;;;;;;;;;;;;
3079;;;;;;;;;;;;;;;;;;;;;
3082;;;;;;;;;;;;;;;;;;;;;
3085;;;;;;;;;;;;;;;;;;;;;
3088;;;;;;;;;;;;;;;;;;;;;
3091;;;;;;;;;;;;;;;;;;;;;
3094;;;;;;;;;;;;;;;;;;;;;
3097;;;;;;;;;;;;;;;;;;;;;
3100;;;;;;;;;;;;;;;;;;;;;
3103;;;;;;;;;;;;;;;;;;;;;
3106;;;;;;;;;;;;;;;;;;;;;
3109;;;;;;;;;;;;;;;;;;;;;
3112;;;;;;;;;;;;;;;;;;;;;
3115;;;;;;;;;;;;;;;;;;;;;
3118;;;;;;;;;;;;;;;;;;;;;
3121;;;;;;;;;;;;;;;;;;;;;
3124;;;;;;;;;;;;;;;;;;;;;
3127;;;;;;;;;;;;;;;;;;;;;
3130;;;;;;;;;;;;;;;;;;;;;
3133;;;;;;;;;;;;;;;;;;;;;
3136;;;;;;;;;;;;;;;;;;;;;
3139;;;;;;;;;;;;;;;;;;;;;
3142;;;;;;;;;;;;;;;;;;;;;
3145;;;;;;;;;;;;;;;;;;;;;
3148;;;;;;;;;;;;;;;;;;;;;
3151;;;;;;;;;;;;;;;;;;;;;
3154;;;;;;;;;;;;;;;;;;;;;
3157;;;;;;;;;;;;;;;;;;;;;
3160;;;;;;;;;;;;;;;;;;;;;
3163;;;;;;;;;;;;;;;;;;;;;
3166;;;;;;;;;;;;;;;;;;;;;
3169;;;;;;;;;;;;;;;;;;;;;
3172;;;;;;;;;;;;;;;;;;;;;
3175;;;;;;;;;;;;;;;;;;;;;
3178;;;;;;;;;;;;;;;;;;;;;
3181;;;;;;;;;;;;;;;;;;;;;
3184;;;;;;;;;;;;;;;;;;;;;
3187;;;;;;;;;;;;;;;;;;;;;
3190;;;;;;;;;;;;;;;;;;;;;
3193;;;;;;;;;;;;;;;;;;;;;
3196;;;;;;;;;;;;;;;;;;;;;
3199;;;;;;;;;;;;;;;;;;;;;
3202;;;;;;;;;;;;;;;;;;;;;
3205;;;;;;;;;;;;;;;;;;;;;
3208;;;;;;;;;;;;;;;;;;;;;
3211;;;;;;;;;;;;;;;;;;;;;
3214;;;;;;;;;;;;;;;;;;;;;
3217;;;;;;;;;;;;;;;;;;;;;
3220;;;;;;;;;;;;;;;;;;;;;
3223;;;;;;;;;;;;;;;;;;;;;
3226;;;;;;;;;;;;;;;;;;;;;
3229;;;;;;;;;;;;;;;;;;;;;
3232;;;;;;;;;;;;;;;;;;;;;
3235;;;;;;;;;;;;;;;;;;;;;
3238;;;;;;;;;;;;;;;;;;;;;
3241;;;;;;;;;;;;;;;;;;;;;
3244;;;;;;;;;;;;;;;;;;;;;
3247;;;;;;;;;;;;;;;;;;;;;
3250;;;;;;;;;;;;;;;;;;;;;
3253;;;;;;;;;;;;;;;;;;;;;
3256;;;;;;;;;;;;;;;;;;;;;
3259;;;;;;;;;;;;;;;;;;;;;
3262;;;;;;;;;;;;;;;;;;;;;
3265;;;;;;;;;;;;;;;;;;;;;
3268;;;;;;;;;;;;;;;;;;;;;
3271;;;;;;;;;;;;;;;;;;;;;
3274;;;;;;;;;;;;;;;;;;;;;
3277;;;;;;;;;;;;;;;;;;;;;
3280;;;;;;;;;;;;;;;;;;;;;
3283;;;;;;;;;;;;;;;;;;;;;
3286;;;;;;;;;;;;;;;;;;;;;
3289;;;;;;;;;;;;;;;;;;;;;
3292;;;;;;;;;;;;;;;;;;;;;
3295;;;;;;;;;;;;;;;;;;;;;
3298;;;;;;;;;;;;;;;;;;;;;
3301;;;;;;;;;;;;;;;;;;;;;
3304;;;;;;;;;;;;;;;;;;;;;
3307;;;;;;;;;;;;;;;;;;;;;
3310;;;;;;;;;;;;;;;;;;;;;
3313;;;;;;;;;;;;;;;;;;;;;
3316;;;;;;;;;;;;;;;;;;;;;
3319;;;;;;;;;;;;;;;;;;;;;
3322;;;;;;;;;;;;;;;;;;;;;
3325;;;;;;;;;;;;;;;;;;;;;