File: carbon_superP/O2_0000rpm.txt
Index;Column 2 (V);Column 3 (V);Column 4 (V);Column 5 (V);Column 6 (V/s);Column 7 (V);Time (s);Potential applied (V);WE(1).Current (A);WE(1).Potential (V);Scan;Column 13;Column 14;Frequency (Hz);Z' (Ω);-Z'' (Ω);Z (Ω);-Phase (°);Time (s);Y' (Mho);-Y'' (Mho)
1;0;0.01;-1;-0.01;0.01;-0.00244;4455.67;-0.0146484;1.18134e-06;-0.0143707;3;3;3;100000;32.1182;2.86511;32.2458;5.09757;3832.42;0.0308891;0.00275546
3;;;;;;;4456.15;-0.01953125;9.93958e-07;-0.0192596;3;;;79433;31.3002;2.20633;31.3779;4.03207;3834.36;0.0317907;0.0022409
5;;;;;;;4456.64;-0.0244141;8.57849e-07;-0.0241516;3;;;50119;30.4991;1.59327;30.5407;2.9904;3838.69;0.0326986;0.00170817
7;;;;;;;4457.13;-0.0292969;6.84814e-07;-0.0290436;3;;;25119;30.2863;1.4413;30.3206;2.7246;3848.01;0.0329436;0.00156776
9;;;;;;;4457.62;-0.0341797;5.59998e-07;-0.0339264;3;;;15849;30.4455;1.6083;30.4879;3.02388;3852.07;0.0327542;0.00173026
11;;;;;;;4458.11;-0.0390625;4.33044e-07;-0.0389435;3;;;10000;30.7143;1.93263;30.775;3.60046;3857.83;0.0324297;0.00204057
13;;;;;;;4458.6;-0.0439453;3.08228e-07;-0.0436493;3;;;6309.6;31.1309;2.42404;31.2251;4.4524;3862.03;0.0319288;0.00248617
15;;;;;;;4459.08;-0.0488281;2.06909e-07;-0.0484894;3;;;3981.1;31.6282;3.09609;31.7794;5.59088;3866.27;0.0313173;0.00306565
17;;;;;;;4459.57;-0.0537109;1.17798e-07;-0.0535278;3;;;2511.9;32.2257;4.02069;32.4755;7.11185;3870.33;0.0305555;0.00381231
19;;;;;;;4460.06;-0.05859375;2.10571e-08;-0.0584106;3;;;1584.9;32.9659;5.32892;33.3938;9.1824;3874.38;0.0295619;0.00477867
21;;;;;;;4460.55;-0.0634766;-6.13403e-08;-0.0631714;3;;;1000;33.8432;7.2257;34.606;12.052;3878.46;0.0282598;0.00603362
23;;;;;;;4461.04;-0.0683594;-1.41602e-07;-0.0679626;3;;;630.96;34.9903;10.0335;36.4004;16.0004;3882.51;0.0264079;0.00757253
25;;;;;;;4461.53;-0.0732422;-2.33154e-07;-0.0729065;3;;;398.11;36.5295;14.1477;39.1735;21.1712;3886.67;0.0238045;0.0092194
27;;;;;;;4462.01;-0.078125;-3.30811e-07;-0.0778198;3;;;251.19;38.7662;20.1206;43.6768;27.4304;3891.06;0.0203214;0.0105473
29;;;;;;;4462.5;-0.0830078;-4.14124e-07;-0.0826416;3;;;158.49;41.9193;28.6823;50.7928;34.381;3894.95;0.0162484;0.0111176
31;;;;;;;4462.99;-0.0878906;-5.30701e-07;-0.0875244;3;;;100;46.3472;40.8464;61.7777;41.3902;3898.85;0.0121439;0.0107026
33;;;;;;;4463.48;-0.0927734;-6.35376e-07;-0.0923767;3;;;63.096;52.5031;58.2762;78.4391;47.9832;3902.99;0.00853336;0.00947166
35;;;;;;;4463.97;-0.09765625;-7.46155e-07;-0.0972595;3;;;39.811;60.8915;83.3387;103.214;53.8462;3915.11;0.00571584;0.00782295
37;;;;;;;4464.46;-0.102539;-8.91113e-07;-0.102234;3;;;25.119;72.1996;119.638;139.736;58.8897;3919.62;0.00369761;0.0061271
39;;;;;;;4464.94;-0.107422;-1.01776e-06;-0.106964;3;;;15.849;87.3532;172.654;193.495;63.1632;3924.79;0.00233314;0.00461148
41;;;;;;;4465.43;-0.112305;-1.16943e-06;-0.111877;3;;;10;107.664;251.106;273.214;66.7923;3930.55;0.00144233;0.00336397
43;;;;;;;4465.92;-0.1171875;-1.33118e-06;-0.116638;3;;;6.3096;135.024;367.983;391.973;69.8504;3936.38;0.000878818;0.00239506
45;;;;;;;4466.41;-0.12207;-1.5387e-06;-0.12149;3;;;3.9811;172.423;543.275;569.981;72.3918;3942.44;0.000530731;0.00167225
47;;;;;;;4466.9;-0.126953;-1.74683e-06;-0.126373;3;;;2.5119;225.701;808.693;839.598;74.4059;3948.58;0.000320177;0.0011472
49;;;;;;;4467.39;-0.131836;-2.00684e-06;-0.131195;3;;;1.5849;304.491;1207.42;1245.22;75.8461;3955.56;0.000196373;0.000778692
51;;;;;;;4467.87;-0.136719;-2.24884e-06;-0.136078;3;;;1;424.861;1810.31;1859.5;76.7923;3965.48;0.000122872;0.000523554
53;;;;;;;4468.36;-0.141602;-2.57721e-06;-0.1409;3;;;0.63096;609.32;2709.63;2777.29;77.3266;3973.7;7.89955e-05;0.000351291
55;;;;;;;4468.85;-0.146484;-2.91931e-06;-0.145752;3;;;0.39811;894.459;4057.37;4154.8;77.5678;3982.99;5.18156e-05;0.000235042
57;;;;;;;4469.34;-0.151367;-3.29956e-06;-0.15094;3;;;0.25119;1338.96;6062.58;6208.68;77.5458;3994.76;3.4735e-05;0.000157275
59;;;;;;;4469.83;-0.15625;-3.74146e-06;-0.155792;3;;;0.15849;2031.91;9016.06;9242.18;77.2997;4010;2.37879e-05;0.000105552
61;;;;;;;4470.31;-0.161133;-4.21448e-06;-0.160675;3;;;0.1;3065.26;13410.2;13756;77.1247;4030.44;1.61987e-05;7.08676e-05
63;;;;;;;4470.8;-0.166016;-4.79431e-06;-0.165558;3;;;;;;;;;;
65;;;;;;;4471.29;-0.170898;-5.3894e-06;-0.17038;3;;;;;;;;;;
67;;;;;;;4471.78;-0.175781;-6.06689e-06;-0.175201;3;;;;;;;;;;
69;;;;;;;4472.27;-0.180664;-6.86035e-06;-0.180206;3;;;;;;;;;;
71;;;;;;;4472.76;-0.185547;-7.69958e-06;-0.185089;3;;;;;;;;;;
73;;;;;;;4473.24;-0.19043;-8.66394e-06;-0.18988;3;;;;;;;;;;
75;;;;;;;4473.73;-0.1953125;-9.73816e-06;-0.194733;3;;;;;;;;;;
77;;;;;;;4474.22;-0.200195;-1.08948e-05;-0.199615;3;;;;;;;;;;
79;;;;;;;4474.71;-0.205078;-1.22253e-05;-0.204437;3;;;;;;;;;;
81;;;;;;;4475.2;-0.209961;-1.36688e-05;-0.20932;3;;;;;;;;;;
83;;;;;;;4475.69;-0.214844;-1.52985e-05;-0.214172;3;;;;;;;;;;
85;;;;;;;4476.17;-0.219727;-1.70563e-05;-0.218994;3;;;;;;;;;;
87;;;;;;;4476.66;-0.224609;-1.89941e-05;-0.223877;3;;;;;;;;;;
89;;;;;;;4477.15;-0.229492;-2.12006e-05;-0.228668;3;;;;;;;;;;
91;;;;;;;4477.64;-0.234375;-2.35657e-05;-0.23349;3;;;;;;;;;;
93;;;;;;;4478.13;-0.239258;-2.62024e-05;-0.238373;3;;;;;;;;;;
95;;;;;;;4478.62;-0.244141;-2.91107e-05;-0.243256;3;;;;;;;;;;
97;;;;;;;4479.1;-0.249023;-3.23029e-05;-0.248505;3;;;;;;;;;;
99;;;;;;;4479.59;-0.253906;-3.58307e-05;-0.253235;3;;;;;;;;;;
101;;;;;;;4480.08;-0.258789;-3.9743e-05;-0.258118;3;;;;;;;;;;
103;;;;;;;4480.57;-0.263672;-4.40033e-05;-0.263031;3;;;;;;;;;;
105;;;;;;;4481.06;-0.268555;-4.8645e-05;-0.267944;3;;;;;;;;;;
107;;;;;;;4481.55;-0.2734375;-5.38025e-05;-0.272797;3;;;;;;;;;;
109;;;;;;;4482.03;-0.27832;-5.93567e-05;-0.277618;3;;;;;;;;;;
111;;;;;;;4482.52;-0.283203;-6.54602e-05;-0.282471;3;;;;;;;;;;
113;;;;;;;4483.01;-0.288086;-7.20825e-05;-0.287384;3;;;;;;;;;;
115;;;;;;;4483.5;-0.292969;-7.92236e-05;-0.292175;3;;;;;;;;;;
117;;;;;;;4483.99;-0.297852;-8.68835e-05;-0.297119;3;;;;;;;;;;
119;;;;;;;4484.47;-0.302734;-9.50317e-05;-0.302002;3;;;;;;;;;;
121;;;;;;;4484.96;-0.307617;-0.000103668;-0.306885;3;;;;;;;;;;
123;;;;;;;4485.45;-0.3125;-0.000112701;-0.311707;3;;;;;;;;;;
125;;;;;;;4485.94;-0.317383;-0.00012204;-0.316559;3;;;;;;;;;;
127;;;;;;;4486.43;-0.322266;-0.000131561;-0.321442;3;;;;;;;;;;
129;;;;;;;4486.92;-0.327148;-0.000141052;-0.326324;3;;;;;;;;;;
131;;;;;;;4487.4;-0.332031;-0.000150391;-0.331146;3;;;;;;;;;;
133;;;;;;;4487.89;-0.336914;-0.000159241;-0.335999;3;;;;;;;;;;
135;;;;;;;4488.38;-0.341797;-0.00016748;-0.340881;3;;;;;;;;;;
137;;;;;;;4488.87;-0.34668;-0.000174683;-0.345734;3;;;;;;;;;;
139;;;;;;;4489.36;-0.3515625;-0.000180511;-0.350647;3;;;;;;;;;;
141;;;;;;;4489.85;-0.356445;-0.000184662;-0.355408;3;;;;;;;;;;
143;;;;;;;4490.33;-0.361328;-0.00018689;-0.360321;3;;;;;;;;;;
145;;;;;;;4490.82;-0.366211;-0.00018689;-0.365234;3;;;;;;;;;;
147;;;;;;;4491.31;-0.371094;-0.000184418;-0.370148;3;;;;;;;;;;
149;;;;;;;4491.8;-0.375977;-0.000179382;-0.375;3;;;;;;;;;;
151;;;;;;;4492.29;-0.380859;-0.000171967;-0.379822;3;;;;;;;;;;
153;;;;;;;4492.78;-0.385742;-0.000162415;-0.384735;3;;;;;;;;;;
155;;;;;;;4493.26;-0.390625;-0.000151245;-0.389618;3;;;;;;;;;;
157;;;;;;;4493.75;-0.395508;-0.000139221;-0.394562;3;;;;;;;;;;
159;;;;;;;4494.24;-0.400391;-0.000127106;-0.399506;3;;;;;;;;;;
161;;;;;;;4494.73;-0.405273;-0.000115662;-0.404297;3;;;;;;;;;;
163;;;;;;;4495.22;-0.410156;-0.000105591;-0.40921;3;;;;;;;;;;
165;;;;;;;4495.71;-0.415039;-9.71069e-05;-0.414093;3;;;;;;;;;;
167;;;;;;;4496.19;-0.419922;-9.0332e-05;-0.418945;3;;;;;;;;;;
169;;;;;;;4496.68;-0.424805;-8.50525e-05;-0.423859;3;;;;;;;;;;
171;;;;;;;4497.17;-0.4296875;-8.10242e-05;-0.428741;3;;;;;;;;;;
173;;;;;;;4497.66;-0.43457;-7.79419e-05;-0.433594;3;;;;;;;;;;
175;;;;;;;4498.15;-0.439453;-7.55615e-05;-0.438507;3;;;;;;;;;;
177;;;;;;;4498.64;-0.444336;-7.36389e-05;-0.44339;3;;;;;;;;;;
179;;;;;;;4499.12;-0.449219;-7.2113e-05;-0.448242;3;;;;;;;;;;
181;;;;;;;4499.61;-0.454102;-7.07703e-05;-0.453094;3;;;;;;;;;;
183;;;;;;;4500.1;-0.458984;-6.96411e-05;-0.457977;3;;;;;;;;;;
185;;;;;;;4500.59;-0.463867;-6.86951e-05;-0.462921;3;;;;;;;;;;
187;;;;;;;4501.08;-0.46875;-6.78711e-05;-0.467712;3;;;;;;;;;;
189;;;;;;;4501.56;-0.473633;-6.70776e-05;-0.472565;3;;;;;;;;;;
191;;;;;;;4502.05;-0.478516;-6.64368e-05;-0.477478;3;;;;;;;;;;
193;;;;;;;4502.54;-0.483398;-6.58264e-05;-0.482391;3;;;;;;;;;;
195;;;;;;;4503.03;-0.488281;-6.53381e-05;-0.487244;3;;;;;;;;;;
197;;;;;;;4503.52;-0.493164;-6.48499e-05;-0.492126;3;;;;;;;;;;
199;;;;;;;4504.01;-0.498047;-6.44531e-05;-0.496979;3;;;;;;;;;;
201;;;;;;;4504.49;-0.50293;-6.40564e-05;-0.501862;3;;;;;;;;;;
203;;;;;;;4504.98;-0.5078125;-6.37512e-05;-0.506744;3;;;;;;;;;;
205;;;;;;;4505.47;-0.512695;-6.34766e-05;-0.511627;3;;;;;;;;;;
207;;;;;;;4505.96;-0.517578;-6.32324e-05;-0.516541;3;;;;;;;;;;
209;;;;;;;4506.45;-0.522461;-6.29883e-05;-0.521393;3;;;;;;;;;;
211;;;;;;;4506.94;-0.527344;-6.28662e-05;-0.526276;3;;;;;;;;;;
213;;;;;;;4507.42;-0.532227;-6.26831e-05;-0.531128;3;;;;;;;;;;
215;;;;;;;4507.91;-0.537109;-6.25916e-05;-0.53598;3;;;;;;;;;;
217;;;;;;;4508.4;-0.541992;-6.25E-05;-0.540863;3;;;;;;;;;;
219;;;;;;;4508.89;-0.546875;-6.24084e-05;-0.545746;3;;;;;;;;;;
221;;;;;;;4509.38;-0.551758;-6.23779e-05;-0.550568;3;;;;;;;;;;
223;;;;;;;4509.87;-0.556641;-6.23474e-05;-0.555511;3;;;;;;;;;;
225;;;;;;;4510.35;-0.561523;-6.23474e-05;-0.560425;3;;;;;;;;;;
227;;;;;;;4510.84;-0.566406;-6.23169e-05;-0.565277;3;;;;;;;;;;
229;;;;;;;4511.33;-0.571289;-6.23779e-05;-0.570068;3;;;;;;;;;;
231;;;;;;;4511.82;-0.576172;-6.2439e-05;-0.574982;3;;;;;;;;;;
233;;;;;;;4512.31;-0.581055;-6.2439e-05;-0.579895;3;;;;;;;;;;
235;;;;;;;4512.8;-0.5859375;-6.25305e-05;-0.584747;3;;;;;;;;;;
237;;;;;;;4513.28;-0.59082;-6.2561e-05;-0.58963;3;;;;;;;;;;
239;;;;;;;4513.77;-0.595703;-6.26221e-05;-0.594543;3;;;;;;;;;;
241;;;;;;;4514.26;-0.600586;-6.27441e-05;-0.599335;3;;;;;;;;;;
243;;;;;;;4514.75;-0.605469;-6.28052e-05;-0.604248;3;;;;;;;;;;
245;;;;;;;4515.24;-0.610352;-6.28967e-05;-0.609131;3;;;;;;;;;;
247;;;;;;;4515.73;-0.615234;-6.29883e-05;-0.614014;3;;;;;;;;;;
249;;;;;;;4516.21;-0.620117;-6.31104e-05;-0.618927;3;;;;;;;;;;
251;;;;;;;4516.7;-0.625;-6.32324e-05;-0.62381;3;;;;;;;;;;
253;;;;;;;4517.19;-0.629883;-6.3324e-05;-0.628632;3;;;;;;;;;;
255;;;;;;;4517.68;-0.634766;-6.3446e-05;-0.633484;3;;;;;;;;;;
257;;;;;;;4518.17;-0.639648;-6.35376e-05;-0.638397;3;;;;;;;;;;
259;;;;;;;4518.65;-0.644531;-6.36292e-05;-0.643341;3;;;;;;;;;;
261;;;;;;;4519.14;-0.649414;-6.37207e-05;-0.648224;3;;;;;;;;;;
263;;;;;;;4519.63;-0.654297;-6.38123e-05;-0.653046;3;;;;;;;;;;
265;;;;;;;4520.12;-0.65918;-6.39038e-05;-0.657928;3;;;;;;;;;;
267;;;;;;;4520.61;-0.6640625;-6.39954e-05;-0.662811;3;;;;;;;;;;
269;;;;;;;4521.1;-0.668945;-6.40564e-05;-0.667694;3;;;;;;;;;;
271;;;;;;;4521.58;-0.673828;-6.41174e-05;-0.672546;3;;;;;;;;;;
273;;;;;;;4522.07;-0.678711;-6.41174e-05;-0.67749;3;;;;;;;;;;
275;;;;;;;4522.56;-0.683594;-6.40869e-05;-0.682373;3;;;;;;;;;;
277;;;;;;;4523.05;-0.688477;-6.41174e-05;-0.687195;3;;;;;;;;;;
279;;;;;;;4523.54;-0.693359;-6.40869e-05;-0.692139;3;;;;;;;;;;
281;;;;;;;4524.03;-0.698242;-6.40564e-05;-0.696991;3;;;;;;;;;;
283;;;;;;;4524.51;-0.703125;-6.39954e-05;-0.701874;3;;;;;;;;;;
285;;;;;;;4525;-0.708008;-6.38733e-05;-0.706726;3;;;;;;;;;;
287;;;;;;;4525.49;-0.712891;-6.37817e-05;-0.711578;3;;;;;;;;;;
289;;;;;;;4525.98;-0.717773;-6.35986e-05;-0.716522;3;;;;;;;;;;
291;;;;;;;4526.47;-0.722656;-6.34155e-05;-0.721405;3;;;;;;;;;;
293;;;;;;;4526.96;-0.727539;-6.32629e-05;-0.726288;3;;;;;;;;;;
295;;;;;;;4527.44;-0.732422;-6.30493e-05;-0.731201;3;;;;;;;;;;
297;;;;;;;4527.93;-0.737305;-6.28357e-05;-0.736023;3;;;;;;;;;;
299;;;;;;;4528.42;-0.7421875;-6.2561e-05;-0.740875;3;;;;;;;;;;
301;;;;;;;4528.91;-0.74707;-6.22864e-05;-0.745789;3;;;;;;;;;;
303;;;;;;;4529.4;-0.751953;-6.20117e-05;-0.751953;3;;;;;;;;;;
305;;;;;;;4529.89;-0.756836;-6.1676e-05;-0.756226;3;;;;;;;;;;
307;;;;;;;4530.37;-0.761719;-6.14319e-05;-0.760193;3;;;;;;;;;;
309;;;;;;;4530.86;-0.766602;-6.11267e-05;-0.765991;3;;;;;;;;;;
311;;;;;;;4531.35;-0.771484;-6.08215e-05;-0.770874;3;;;;;;;;;;
313;;;;;;;4531.84;-0.776367;-6.05164e-05;-0.776062;3;;;;;;;;;;
315;;;;;;;4532.33;-0.78125;-6.02112e-05;-0.780029;3;;;;;;;;;;
317;;;;;;;4532.81;-0.786133;-5.9906e-05;-0.785522;3;;;;;;;;;;
319;;;;;;;4533.3;-0.791016;-5.96313e-05;-0.790405;3;;;;;;;;;;
321;;;;;;;4533.79;-0.795898;-5.93262e-05;-0.794983;3;;;;;;;;;;
323;;;;;;;4534.28;-0.800781;-5.9082e-05;-0.800171;3;;;;;;;;;;
325;;;;;;;4534.77;-0.805664;-5.88684e-05;-0.805359;3;;;;;;;;;;
327;;;;;;;4535.26;-0.810547;-5.86548e-05;-0.809937;3;;;;;;;;;;
329;;;;;;;4535.74;-0.81543;-5.84717e-05;-0.814819;3;;;;;;;;;;
331;;;;;;;4536.23;-0.8203125;-5.83496e-05;-0.820007;3;;;;;;;;;;
333;;;;;;;4536.72;-0.825195;-5.8197e-05;-0.824585;3;;;;;;;;;;
335;;;;;;;4537.21;-0.830078;-5.81055e-05;-0.829773;3;;;;;;;;;;
337;;;;;;;4537.7;-0.834961;-5.79834e-05;-0.834656;3;;;;;;;;;;
339;;;;;;;4538.19;-0.839844;-5.79529e-05;-0.839233;3;;;;;;;;;;
341;;;;;;;4538.67;-0.844727;-5.78613e-05;-0.844116;3;;;;;;;;;;
343;;;;;;;4539.16;-0.849609;-5.78613e-05;-0.849304;3;;;;;;;;;;
345;;;;;;;4539.65;-0.854492;-5.78003e-05;-0.853882;3;;;;;;;;;;
347;;;;;;;4540.14;-0.859375;-5.77393e-05;-0.858459;3;;;;;;;;;;
349;;;;;;;4540.63;-0.864258;-5.77087e-05;-0.863342;3;;;;;;;;;;
351;;;;;;;4541.12;-0.869141;-5.76782e-05;-0.868225;3;;;;;;;;;;
353;;;;;;;4541.6;-0.874023;-5.77087e-05;-0.873108;3;;;;;;;;;;
355;;;;;;;4542.09;-0.878906;-5.76782e-05;-0.878296;3;;;;;;;;;;
357;;;;;;;4542.58;-0.883789;-5.76782e-05;-0.882874;3;;;;;;;;;;
359;;;;;;;4543.07;-0.888672;-5.76782e-05;-0.888367;3;;;;;;;;;;
361;;;;;;;4543.56;-0.893555;-5.77087e-05;-0.892334;3;;;;;;;;;;
363;;;;;;;4544.05;-0.8984375;-5.77087e-05;-0.898132;3;;;;;;;;;;
365;;;;;;;4544.53;-0.90332;-5.77087e-05;-0.902405;3;;;;;;;;;;
367;;;;;;;4545.02;-0.908203;-5.76477e-05;-0.907593;3;;;;;;;;;;
369;;;;;;;4545.51;-0.913086;-5.77087e-05;-0.912781;3;;;;;;;;;;
371;;;;;;;4546;-0.917969;-5.77087e-05;-0.917664;3;;;;;;;;;;
373;;;;;;;4546.49;-0.922852;-5.77087e-05;-0.921936;3;;;;;;;;;;
375;;;;;;;4546.98;-0.927734;-5.77087e-05;-0.927429;3;;;;;;;;;;
377;;;;;;;4547.46;-0.932617;-5.77087e-05;-0.932007;3;;;;;;;;;;
379;;;;;;;4547.95;-0.9375;-5.77087e-05;-0.936584;3;;;;;;;;;;
381;;;;;;;4548.44;-0.942383;-5.76782e-05;-0.942078;3;;;;;;;;;;
383;;;;;;;4548.93;-0.947266;-5.77087e-05;-0.94696;3;;;;;;;;;;
385;;;;;;;4549.42;-0.952148;-5.77393e-05;-0.951233;3;;;;;;;;;;
387;;;;;;;4549.9;-0.957031;-5.76782e-05;-0.956116;3;;;;;;;;;;
389;;;;;;;4550.39;-0.961914;-5.77087e-05;-0.960999;3;;;;;;;;;;
391;;;;;;;4550.88;-0.966797;-5.76782e-05;-0.965881;3;;;;;;;;;;
393;;;;;;;4551.37;-0.97168;-5.77393e-05;-0.971069;3;;;;;;;;;;
395;;;;;;;4551.86;-0.9765625;-5.77393e-05;-0.975952;3;;;;;;;;;;
397;;;;;;;4552.35;-0.981445;-5.77393e-05;-0.980835;3;;;;;;;;;;
399;;;;;;;4552.83;-0.986328;-5.77698e-05;-0.985718;3;;;;;;;;;;
401;;;;;;;4553.32;-0.991211;-5.77698e-05;-0.98999;3;;;;;;;;;;
403;;;;;;;4553.81;-0.996094;-5.78308e-05;-0.995483;3;;;;;;;;;;
405;;;;;;;4554.3;-1.00098;-5.78003e-05;-1.00067;3;;;;;;;;;;
407;;;;;;;4554.79;-0.996094;-5.53894e-05;-0.995789;3;;;;;;;;;;
409;;;;;;;4555.28;-0.991211;-5.42603e-05;-0.990906;3;;;;;;;;;;
411;;;;;;;4555.76;-0.986328;-5.34973e-05;-0.985718;3;;;;;;;;;;
413;;;;;;;4556.25;-0.981445;-5.2948e-05;-0.980835;3;;;;;;;;;;
415;;;;;;;4556.74;-0.9765625;-5.25208e-05;-0.975647;3;;;;;;;;;;
417;;;;;;;4557.23;-0.97168;-5.2124e-05;-0.971375;3;;;;;;;;;;
419;;;;;;;4557.72;-0.966797;-5.17883e-05;-0.965881;3;;;;;;;;;;
421;;;;;;;4558.21;-0.961914;-5.15137e-05;-0.960999;3;;;;;;;;;;
423;;;;;;;4558.69;-0.957031;-5.12695e-05;-0.956116;3;;;;;;;;;;
425;;;;;;;4559.18;-0.952148;-5.10559e-05;-0.951233;3;;;;;;;;;;
427;;;;;;;4559.67;-0.947266;-5.08423e-05;-0.946655;3;;;;;;;;;;
429;;;;;;;4560.16;-0.942383;-5.06287e-05;-0.942383;3;;;;;;;;;;
431;;;;;;;4560.65;-0.9375;-5.04456e-05;-0.93689;3;;;;;;;;;;
433;;;;;;;4561.14;-0.932617;-5.0293e-05;-0.931702;3;;;;;;;;;;
435;;;;;;;4561.62;-0.927734;-5.01099e-05;-0.927124;3;;;;;;;;;;
437;;;;;;;4562.11;-0.922852;-4.99878e-05;-0.922546;3;;;;;;;;;;
439;;;;;;;4562.6;-0.917969;-4.98657e-05;-0.917358;3;;;;;;;;;;
441;;;;;;;4563.09;-0.913086;-4.97437e-05;-0.912476;3;;;;;;;;;;
443;;;;;;;4563.58;-0.908203;-4.95911e-05;-0.907288;3;;;;;;;;;;
445;;;;;;;4564.06;-0.90332;-4.9469e-05;-0.902405;3;;;;;;;;;;
447;;;;;;;4564.55;-0.8984375;-4.93164e-05;-0.897827;3;;;;;;;;;;
449;;;;;;;4565.04;-0.893555;-4.92554e-05;-0.892334;3;;;;;;;;;;
451;;;;;;;4565.53;-0.888672;-4.91028e-05;-0.888062;3;;;;;;;;;;
453;;;;;;;4566.02;-0.883789;-4.89807e-05;-0.883179;3;;;;;;;;;;
455;;;;;;;4566.51;-0.878906;-4.88892e-05;-0.877991;3;;;;;;;;;;
457;;;;;;;4566.99;-0.874023;-4.87976e-05;-0.873413;3;;;;;;;;;;
459;;;;;;;4567.48;-0.869141;-4.86755e-05;-0.86792;3;;;;;;;;;;
461;;;;;;;4567.97;-0.864258;-4.85718e-05;-0.863342;3;;;;;;;;;;
463;;;;;;;4568.46;-0.859375;-4.84772e-05;-0.858765;3;;;;;;;;;;
465;;;;;;;4568.95;-0.854492;-4.83704e-05;-0.853577;3;;;;;;;;;;
467;;;;;;;4569.44;-0.849609;-4.82788e-05;-0.848999;3;;;;;;;;;;
469;;;;;;;4569.92;-0.844727;-4.8172e-05;-0.843506;3;;;;;;;;;;
471;;;;;;;4570.41;-0.839844;-4.80774e-05;-0.839233;3;;;;;;;;;;
473;;;;;;;4570.9;-0.834961;-4.79675e-05;-0.834656;3;;;;;;;;;;
475;;;;;;;4571.39;-0.830078;-4.78912e-05;-0.829163;3;;;;;;;;;;
477;;;;;;;4571.88;-0.825195;-4.77936e-05;-0.82489;3;;;;;;;;;;
479;;;;;;;4572.37;-0.8203125;-4.76929e-05;-0.819702;3;;;;;;;;;;
481;;;;;;;4572.85;-0.81543;-4.75983e-05;-0.814209;3;;;;;;;;;;
483;;;;;;;4573.34;-0.810547;-4.75159e-05;-0.809631;3;;;;;;;;;;
485;;;;;;;4573.83;-0.805664;-4.74396e-05;-0.805054;3;;;;;;;;;;
487;;;;;;;4574.32;-0.800781;-4.73602e-05;-0.800476;3;;;;;;;;;;
489;;;;;;;4574.81;-0.795898;-4.72839e-05;-0.794678;3;;;;;;;;;;
491;;;;;;;4575.3;-0.791016;-4.72015e-05;-0.789795;3;;;;;;;;;;
493;;;;;;;4575.78;-0.786133;-4.71558e-05;-0.785522;3;;;;;;;;;;
495;;;;;;;4576.27;-0.78125;-4.71039e-05;-0.780334;3;;;;;;;;;;
497;;;;;;;4576.76;-0.776367;-4.70154e-05;-0.775757;3;;;;;;;;;;
499;;;;;;;4577.25;-0.771484;-4.69635e-05;-0.770569;3;;;;;;;;;;
501;;;;;;;4577.74;-0.766602;-4.69299e-05;-0.765686;3;;;;;;;;;;
503;;;;;;;4578.23;-0.761719;-4.68811e-05;-0.761108;3;;;;;;;;;;
505;;;;;;;4578.71;-0.756836;-4.68353e-05;-0.756531;3;;;;;;;;;;
507;;;;;;;4579.2;-0.751953;-4.68018e-05;-0.751038;3;;;;;;;;;;
509;;;;;;;4579.69;-0.74707;-4.67346e-05;-0.745819;3;;;;;;;;;;
511;;;;;;;4580.18;-0.7421875;-4.67316e-05;-0.740936;3;;;;;;;;;;
513;;;;;;;4580.67;-0.737305;-4.66858e-05;-0.736053;3;;;;;;;;;;
515;;;;;;;4581.15;-0.732422;-4.66553e-05;-0.731171;3;;;;;;;;;;
517;;;;;;;4581.64;-0.727539;-4.66522e-05;-0.726257;3;;;;;;;;;;
519;;;;;;;4582.13;-0.722656;-4.66034e-05;-0.721436;3;;;;;;;;;;
521;;;;;;;4582.62;-0.717773;-4.65912e-05;-0.716492;3;;;;;;;;;;
523;;;;;;;4583.11;-0.712891;-4.65637e-05;-0.711639;3;;;;;;;;;;
525;;;;;;;4583.6;-0.708008;-4.65546e-05;-0.706818;3;;;;;;;;;;
527;;;;;;;4584.08;-0.703125;-4.65302e-05;-0.701843;3;;;;;;;;;;
529;;;;;;;4584.57;-0.698242;-4.64874e-05;-0.696899;3;;;;;;;;;;
531;;;;;;;4585.06;-0.693359;-4.65088e-05;-0.692047;3;;;;;;;;;;
533;;;;;;;4585.55;-0.688477;-4.6463e-05;-0.687225;3;;;;;;;;;;
535;;;;;;;4586.04;-0.683594;-4.64478e-05;-0.682281;3;;;;;;;;;;
537;;;;;;;4586.53;-0.678711;-4.64355e-05;-0.677399;3;;;;;;;;;;
539;;;;;;;4587.01;-0.673828;-4.64294e-05;-0.672546;3;;;;;;;;;;
541;;;;;;;4587.5;-0.668945;-4.64172e-05;-0.667664;3;;;;;;;;;;
543;;;;;;;4587.99;-0.6640625;-4.63837e-05;-0.662842;3;;;;;;;;;;
545;;;;;;;4588.48;-0.65918;-4.63745e-05;-0.657959;3;;;;;;;;;;
547;;;;;;;4588.97;-0.654297;-4.63745e-05;-0.653076;3;;;;;;;;;;
549;;;;;;;4589.46;-0.649414;-4.63562e-05;-0.648163;3;;;;;;;;;;
551;;;;;;;4589.94;-0.644531;-4.63379e-05;-0.643341;3;;;;;;;;;;
553;;;;;;;4590.43;-0.639648;-4.63196e-05;-0.638397;3;;;;;;;;;;
555;;;;;;;4590.92;-0.634766;-4.63135e-05;-0.633545;3;;;;;;;;;;
557;;;;;;;4591.41;-0.629883;-4.63043e-05;-0.628601;3;;;;;;;;;;
559;;;;;;;4591.9;-0.625;-4.62646e-05;-0.62381;3;;;;;;;;;;
561;;;;;;;4592.39;-0.620117;-4.62616e-05;-0.618958;3;;;;;;;;;;
563;;;;;;;4592.87;-0.615234;-4.62311e-05;-0.613983;3;;;;;;;;;;
565;;;;;;;4593.36;-0.610352;-4.62311e-05;-0.609192;3;;;;;;;;;;
567;;;;;;;4593.85;-0.605469;-4.62158e-05;-0.604248;3;;;;;;;;;;
569;;;;;;;4594.34;-0.600586;-4.61945e-05;-0.599396;3;;;;;;;;;;
571;;;;;;;4594.83;-0.595703;-4.61395e-05;-0.594574;3;;;;;;;;;;
573;;;;;;;4595.31;-0.59082;-4.61182e-05;-0.589661;3;;;;;;;;;;
575;;;;;;;4595.8;-0.5859375;-4.6109e-05;-0.584778;3;;;;;;;;;;
577;;;;;;;4596.29;-0.581055;-4.60724e-05;-0.579926;3;;;;;;;;;;
579;;;;;;;4596.78;-0.576172;-4.60266e-05;-0.574982;3;;;;;;;;;;
581;;;;;;;4597.27;-0.571289;-4.59686e-05;-0.57016;3;;;;;;;;;;
583;;;;;;;4597.76;-0.566406;-4.59137e-05;-0.565277;3;;;;;;;;;;
585;;;;;;;4598.24;-0.561523;-4.58649e-05;-0.560364;3;;;;;;;;;;
587;;;;;;;4598.73;-0.556641;-4.5813e-05;-0.555481;3;;;;;;;;;;
589;;;;;;;4599.22;-0.551758;-4.57214e-05;-0.550629;3;;;;;;;;;;
591;;;;;;;4599.71;-0.546875;-4.56421e-05;-0.545807;3;;;;;;;;;;
593;;;;;;;4600.2;-0.541992;-4.55841e-05;-0.540924;3;;;;;;;;;;
595;;;;;;;4600.69;-0.537109;-4.54865e-05;-0.536041;3;;;;;;;;;;
597;;;;;;;4601.17;-0.532227;-4.54071e-05;-0.531097;3;;;;;;;;;;
599;;;;;;;4601.66;-0.527344;-4.53339e-05;-0.526245;3;;;;;;;;;;
601;;;;;;;4602.15;-0.522461;-4.52301e-05;-0.521393;3;;;;;;;;;;
603;;;;;;;4602.64;-0.517578;-4.51355e-05;-0.516479;3;;;;;;;;;;
605;;;;;;;4603.13;-0.512695;-4.50623e-05;-0.511627;3;;;;;;;;;;
607;;;;;;;4603.62;-0.5078125;-4.49677e-05;-0.506714;3;;;;;;;;;;
609;;;;;;;4604.1;-0.50293;-4.48486e-05;-0.501862;3;;;;;;;;;;
611;;;;;;;4604.59;-0.498047;-4.47876e-05;-0.497101;3;;;;;;;;;;
613;;;;;;;4605.08;-0.493164;-4.4693e-05;-0.492157;3;;;;;;;;;;
615;;;;;;;4605.57;-0.488281;-4.45862e-05;-0.487213;3;;;;;;;;;;
617;;;;;;;4606.06;-0.483398;-4.44946e-05;-0.482452;3;;;;;;;;;;
619;;;;;;;4606.55;-0.478516;-4.43878e-05;-0.477539;3;;;;;;;;;;
621;;;;;;;4607.03;-0.473633;-4.42688e-05;-0.472595;3;;;;;;;;;;
623;;;;;;;4607.52;-0.46875;-4.4162e-05;-0.467773;3;;;;;;;;;;
625;;;;;;;4608.01;-0.463867;-4.40399e-05;-0.46283;3;;;;;;;;;;
627;;;;;;;4608.5;-0.458984;-4.3924e-05;-0.458008;3;;;;;;;;;;
629;;;;;;;4608.99;-0.454102;-4.37775e-05;-0.453125;3;;;;;;;;;;
631;;;;;;;4609.48;-0.449219;-4.36401e-05;-0.448273;3;;;;;;;;;;
633;;;;;;;4609.96;-0.444336;-4.34784e-05;-0.443451;3;;;;;;;;;;
635;;;;;;;4610.45;-0.439453;-4.33167e-05;-0.438538;3;;;;;;;;;;
637;;;;;;;4610.94;-0.43457;-4.31274e-05;-0.433624;3;;;;;;;;;;
639;;;;;;;4611.43;-0.4296875;-4.29565e-05;-0.428741;3;;;;;;;;;;
641;;;;;;;4611.92;-0.424805;-4.27368e-05;-0.42395;3;;;;;;;;;;
643;;;;;;;4612.4;-0.419922;-4.25049e-05;-0.419037;3;;;;;;;;;;
645;;;;;;;4612.89;-0.415039;-4.22394e-05;-0.414124;3;;;;;;;;;;
647;;;;;;;4613.38;-0.410156;-4.19678e-05;-0.409271;3;;;;;;;;;;
649;;;;;;;4613.87;-0.405273;-4.16412e-05;-0.404388;3;;;;;;;;;;
651;;;;;;;4614.36;-0.400391;-4.12994e-05;-0.399536;3;;;;;;;;;;
653;;;;;;;4614.85;-0.395508;-4.09302e-05;-0.394653;3;;;;;;;;;;
655;;;;;;;4615.33;-0.390625;-4.05212e-05;-0.389771;3;;;;;;;;;;
657;;;;;;;4615.82;-0.385742;-4.00085e-05;-0.384827;3;;;;;;;;;;
659;;;;;;;4616.31;-0.380859;-3.95233e-05;-0.380035;3;;;;;;;;;;
661;;;;;;;4616.8;-0.375977;-3.89771e-05;-0.375153;3;;;;;;;;;;
663;;;;;;;4617.29;-0.371094;-3.83636e-05;-0.370239;3;;;;;;;;;;
665;;;;;;;4617.78;-0.366211;-3.77014e-05;-0.365417;3;;;;;;;;;;
667;;;;;;;4618.26;-0.361328;-3.69965e-05;-0.360535;3;;;;;;;;;;
669;;;;;;;4618.75;-0.356445;-3.6261e-05;-0.355621;3;;;;;;;;;;
671;;;;;;;4619.24;-0.3515625;-3.54584e-05;-0.3508;3;;;;;;;;;;
673;;;;;;;4619.73;-0.34668;-3.4613e-05;-0.345947;3;;;;;;;;;;
675;;;;;;;4620.22;-0.341797;-3.37036e-05;-0.341095;3;;;;;;;;;;
677;;;;;;;4620.71;-0.336914;-3.27637e-05;-0.336182;3;;;;;;;;;;
679;;;;;;;4621.19;-0.332031;-3.17871e-05;-0.331268;3;;;;;;;;;;
681;;;;;;;4621.68;-0.327148;-3.07922e-05;-0.326385;3;;;;;;;;;;
683;;;;;;;4622.17;-0.322266;-2.97394e-05;-0.321564;3;;;;;;;;;;
685;;;;;;;4622.66;-0.317383;-2.86713e-05;-0.316681;3;;;;;;;;;;
687;;;;;;;4623.15;-0.3125;-2.75818e-05;-0.311829;3;;;;;;;;;;
689;;;;;;;4623.64;-0.307617;-2.64832e-05;-0.306885;3;;;;;;;;;;
691;;;;;;;4624.12;-0.302734;-2.53906e-05;-0.302032;3;;;;;;;;;;
693;;;;;;;4624.61;-0.297852;-2.42706e-05;-0.29718;3;;;;;;;;;;
695;;;;;;;4625.1;-0.292969;-2.31537e-05;-0.292297;3;;;;;;;;;;
697;;;;;;;4625.59;-0.288086;-2.20337e-05;-0.287415;3;;;;;;;;;;
699;;;;;;;4626.08;-0.283203;-2.09503e-05;-0.282532;3;;;;;;;;;;
701;;;;;;;4626.57;-0.27832;-1.98608e-05;-0.277618;3;;;;;;;;;;
703;;;;;;;4627.05;-0.2734375;-1.87805e-05;-0.272797;3;;;;;;;;;;
705;;;;;;;4627.54;-0.268555;-1.77277e-05;-0.267975;3;;;;;;;;;;
707;;;;;;;4628.03;-0.263672;-1.67084e-05;-0.263092;3;;;;;;;;;;
709;;;;;;;4628.52;-0.258789;-1.56952e-05;-0.258148;3;;;;;;;;;;
711;;;;;;;4629.01;-0.253906;-1.47156e-05;-0.253296;3;;;;;;;;;;
713;;;;;;;4629.49;-0.249023;-1.37573e-05;-0.248444;3;;;;;;;;;;
715;;;;;;;4629.98;-0.244141;-1.28143e-05;-0.24353;3;;;;;;;;;;
717;;;;;;;4630.47;-0.239258;-1.1911e-05;-0.238678;3;;;;;;;;;;
719;;;;;;;4630.96;-0.234375;-1.10413e-05;-0.233765;3;;;;;;;;;;
721;;;;;;;4631.45;-0.229492;-1.01868e-05;-0.228912;3;;;;;;;;;;
723;;;;;;;4631.94;-0.224609;-9.43298e-06;-0.223999;3;;;;;;;;;;
725;;;;;;;4632.42;-0.219727;-8.63953e-06;-0.219177;3;;;;;;;;;;
727;;;;;;;4632.91;-0.214844;-7.91321e-06;-0.214203;3;;;;;;;;;;
729;;;;;;;4633.4;-0.209961;-7.25098e-06;-0.209381;3;;;;;;;;;;
731;;;;;;;4633.89;-0.205078;-6.57043e-06;-0.204437;3;;;;;;;;;;
733;;;;;;;4634.38;-0.200195;-5.96008e-06;-0.199615;3;;;;;;;;;;
735;;;;;;;4634.87;-0.1953125;-5.3772e-06;-0.194794;3;;;;;;;;;;
737;;;;;;;4635.35;-0.19043;-4.82483e-06;-0.189911;3;;;;;;;;;;
739;;;;;;;4635.84;-0.185547;-4.30908e-06;-0.185089;3;;;;;;;;;;
741;;;;;;;4636.33;-0.180664;-3.82385e-06;-0.180145;3;;;;;;;;;;
743;;;;;;;4636.82;-0.175781;-3.37463e-06;-0.175354;3;;;;;;;;;;
745;;;;;;;4637.31;-0.170898;-2.9422e-06;-0.17041;3;;;;;;;;;;
747;;;;;;;4637.8;-0.166016;-2.55157e-06;-0.165527;3;;;;;;;;;;
749;;;;;;;4638.28;-0.161133;-2.17865e-06;-0.160675;3;;;;;;;;;;
751;;;;;;;4638.77;-0.15625;-1.84509e-06;-0.155853;3;;;;;;;;;;
753;;;;;;;4639.26;-0.151367;-1.51672e-06;-0.15094;3;;;;;;;;;;
755;;;;;;;4639.75;-0.146484;-1.23688e-06;-0.146118;3;;;;;;;;;;
757;;;;;;;4640.24;-0.141602;-9.49402e-07;-0.141144;3;;;;;;;;;;
759;;;;;;;4640.73;-0.136719;-7.07703e-07;-0.136322;3;;;;;;;;;;
761;;;;;;;4641.21;-0.131836;-4.7699e-07;-0.131378;3;;;;;;;;;;
763;;;;;;;4641.7;-0.126953;-2.36511e-07;-0.126556;3;;;;;;;;;;
765;;;;;;;4642.19;-0.12207;-4.60815e-08;-0.121735;3;;;;;;;;;;
767;;;;;;;4642.68;-0.1171875;1.28479e-07;-0.116882;3;;;;;;;;;;
769;;;;;;;4643.17;-0.112305;3.07617e-07;-0.112091;3;;;;;;;;;;
771;;;;;;;4643.65;-0.107422;5.02014e-07;-0.107208;3;;;;;;;;;;
773;;;;;;;4644.14;-0.102539;6.5979e-07;-0.102325;3;;;;;;;;;;
775;;;;;;;4644.63;-0.09765625;8.00171e-07;-0.0975037;3;;;;;;;;;;
777;;;;;;;4645.12;-0.0927734;9.42688e-07;-0.0926208;3;;;;;;;;;;
779;;;;;;;4645.61;-0.0878906;1.091e-06;-0.0877075;3;;;;;;;;;;
781;;;;;;;4646.1;-0.0830078;1.20544e-06;-0.0828552;3;;;;;;;;;;
783;;;;;;;4646.58;-0.078125;1.33636e-06;-0.078125;3;;;;;;;;;;
785;;;;;;;4647.07;-0.0732422;1.4801e-06;-0.0731506;3;;;;;;;;;;
787;;;;;;;4647.56;-0.0683594;1.57349e-06;-0.0683594;3;;;;;;;;;;
789;;;;;;;4648.05;-0.0634766;1.71875E-06;-0.0634766;3;;;;;;;;;;
791;;;;;;;4648.54;-0.05859375;1.83899e-06;-0.0585327;3;;;;;;;;;;
793;;;;;;;4649.03;-0.0537109;1.95129e-06;-0.0537109;3;;;;;;;;;;
795;;;;;;;4649.51;-0.0488281;2.06329e-06;-0.0485016;3;;;;;;;;;;
797;;;;;;;4650;-0.0439453;2.19025e-06;-0.0436615;3;;;;;;;;;;
799;;;;;;;4650.49;-0.0390625;2.28271e-06;-0.0388763;3;;;;;;;;;;
801;;;;;;;4650.98;-0.0341797;2.38983e-06;-0.0338776;3;;;;;;;;;;
803;;;;;;;4651.47;-0.0292969;2.49908e-06;-0.0290314;3;;;;;;;;;;
805;;;;;;;4651.96;-0.0244141;2.59064e-06;-0.0241455;3;;;;;;;;;;
807;;;;;;;4652.44;-0.01953125;2.67639e-06;-0.0192688;3;;;;;;;;;;
809;;;;;;;4652.93;-0.0146484;2.77039e-06;-0.0144196;3;;;;;;;;;;
811;;;;;;;4653.42;-0.009765625;2.83875e-06;-0.00959473;3;;;;;;;;;;
813;;;;;;;4653.91;-0.00488281;2.89734e-06;-0.00466614;3;;;;;;;;;;
815;;;;;;;4654.4;0;2.95593e-06;0.000192261;3;;;;;;;;;;
817;;;;;;;4654.89;0.00488281;3.01422e-06;0.0051239;3;;;;;;;;;;
819;;;;;;;4655.37;0.009765625;3.04199e-06;0.00998535;3;;;;;;;;;;
821;;;;;;;4655.86;0.009765625;2.69836e-06;0.00997925;3;;;;;;;;;;
823;;;;;;;4656.35;0.00488281;2.24609e-06;0.0051239;3;;;;;;;;;;
825;;;;;;;4656.84;0;1.89087e-06;0.000238037;3;;;;;;;;;;
827;;;;;;;4657.33;-0.00488281;1.63269e-06;-0.00463257;3;;;;;;;;;;
829;;;;;;;4657.82;-0.009765625;1.38855e-06;-0.00951538;3;;;;;;;;;;
831;;;;;;;;;;;;;;;;;;;;;
833;;;;;;;;;;;;;;;;;;;;;
835;;;;;;;;;;;;;;;;;;;;;
837;;;;;;;;;;;;;;;;;;;;;
839;;;;;;;;;;;;;;;;;;;;;
841;;;;;;;;;;;;;;;;;;;;;
843;;;;;;;;;;;;;;;;;;;;;
845;;;;;;;;;;;;;;;;;;;;;
847;;;;;;;;;;;;;;;;;;;;;
849;;;;;;;;;;;;;;;;;;;;;
851;;;;;;;;;;;;;;;;;;;;;
853;;;;;;;;;;;;;;;;;;;;;
855;;;;;;;;;;;;;;;;;;;;;
857;;;;;;;;;;;;;;;;;;;;;
859;;;;;;;;;;;;;;;;;;;;;
861;;;;;;;;;;;;;;;;;;;;;
863;;;;;;;;;;;;;;;;;;;;;
865;;;;;;;;;;;;;;;;;;;;;
867;;;;;;;;;;;;;;;;;;;;;
869;;;;;;;;;;;;;;;;;;;;;
871;;;;;;;;;;;;;;;;;;;;;
873;;;;;;;;;;;;;;;;;;;;;
875;;;;;;;;;;;;;;;;;;;;;
877;;;;;;;;;;;;;;;;;;;;;
879;;;;;;;;;;;;;;;;;;;;;
881;;;;;;;;;;;;;;;;;;;;;
883;;;;;;;;;;;;;;;;;;;;;
885;;;;;;;;;;;;;;;;;;;;;
887;;;;;;;;;;;;;;;;;;;;;
889;;;;;;;;;;;;;;;;;;;;;
891;;;;;;;;;;;;;;;;;;;;;
893;;;;;;;;;;;;;;;;;;;;;
895;;;;;;;;;;;;;;;;;;;;;
897;;;;;;;;;;;;;;;;;;;;;
899;;;;;;;;;;;;;;;;;;;;;
901;;;;;;;;;;;;;;;;;;;;;
903;;;;;;;;;;;;;;;;;;;;;
905;;;;;;;;;;;;;;;;;;;;;
907;;;;;;;;;;;;;;;;;;;;;
909;;;;;;;;;;;;;;;;;;;;;
911;;;;;;;;;;;;;;;;;;;;;
913;;;;;;;;;;;;;;;;;;;;;
915;;;;;;;;;;;;;;;;;;;;;
917;;;;;;;;;;;;;;;;;;;;;
919;;;;;;;;;;;;;;;;;;;;;
921;;;;;;;;;;;;;;;;;;;;;
923;;;;;;;;;;;;;;;;;;;;;
925;;;;;;;;;;;;;;;;;;;;;
927;;;;;;;;;;;;;;;;;;;;;
929;;;;;;;;;;;;;;;;;;;;;
931;;;;;;;;;;;;;;;;;;;;;
933;;;;;;;;;;;;;;;;;;;;;
935;;;;;;;;;;;;;;;;;;;;;
937;;;;;;;;;;;;;;;;;;;;;
939;;;;;;;;;;;;;;;;;;;;;
941;;;;;;;;;;;;;;;;;;;;;
943;;;;;;;;;;;;;;;;;;;;;
945;;;;;;;;;;;;;;;;;;;;;
947;;;;;;;;;;;;;;;;;;;;;
949;;;;;;;;;;;;;;;;;;;;;
951;;;;;;;;;;;;;;;;;;;;;
953;;;;;;;;;;;;;;;;;;;;;
955;;;;;;;;;;;;;;;;;;;;;
957;;;;;;;;;;;;;;;;;;;;;
959;;;;;;;;;;;;;;;;;;;;;
961;;;;;;;;;;;;;;;;;;;;;
963;;;;;;;;;;;;;;;;;;;;;
965;;;;;;;;;;;;;;;;;;;;;
967;;;;;;;;;;;;;;;;;;;;;
969;;;;;;;;;;;;;;;;;;;;;
971;;;;;;;;;;;;;;;;;;;;;
973;;;;;;;;;;;;;;;;;;;;;
975;;;;;;;;;;;;;;;;;;;;;
977;;;;;;;;;;;;;;;;;;;;;
979;;;;;;;;;;;;;;;;;;;;;
981;;;;;;;;;;;;;;;;;;;;;
983;;;;;;;;;;;;;;;;;;;;;
985;;;;;;;;;;;;;;;;;;;;;
987;;;;;;;;;;;;;;;;;;;;;
989;;;;;;;;;;;;;;;;;;;;;
991;;;;;;;;;;;;;;;;;;;;;
993;;;;;;;;;;;;;;;;;;;;;
995;;;;;;;;;;;;;;;;;;;;;
997;;;;;;;;;;;;;;;;;;;;;
999;;;;;;;;;;;;;;;;;;;;;
1001;;;;;;;;;;;;;;;;;;;;;
1003;;;;;;;;;;;;;;;;;;;;;
1005;;;;;;;;;;;;;;;;;;;;;
1007;;;;;;;;;;;;;;;;;;;;;
1009;;;;;;;;;;;;;;;;;;;;;
1011;;;;;;;;;;;;;;;;;;;;;
1013;;;;;;;;;;;;;;;;;;;;;
1015;;;;;;;;;;;;;;;;;;;;;
1017;;;;;;;;;;;;;;;;;;;;;
1019;;;;;;;;;;;;;;;;;;;;;
1021;;;;;;;;;;;;;;;;;;;;;
1023;;;;;;;;;;;;;;;;;;;;;
1025;;;;;;;;;;;;;;;;;;;;;
1027;;;;;;;;;;;;;;;;;;;;;
1029;;;;;;;;;;;;;;;;;;;;;
1031;;;;;;;;;;;;;;;;;;;;;
1033;;;;;;;;;;;;;;;;;;;;;
1035;;;;;;;;;;;;;;;;;;;;;
1037;;;;;;;;;;;;;;;;;;;;;
1039;;;;;;;;;;;;;;;;;;;;;
1041;;;;;;;;;;;;;;;;;;;;;
1043;;;;;;;;;;;;;;;;;;;;;
1045;;;;;;;;;;;;;;;;;;;;;
1047;;;;;;;;;;;;;;;;;;;;;
1049;;;;;;;;;;;;;;;;;;;;;
1051;;;;;;;;;;;;;;;;;;;;;
1053;;;;;;;;;;;;;;;;;;;;;
1055;;;;;;;;;;;;;;;;;;;;;
1057;;;;;;;;;;;;;;;;;;;;;
1059;;;;;;;;;;;;;;;;;;;;;
1061;;;;;;;;;;;;;;;;;;;;;
1063;;;;;;;;;;;;;;;;;;;;;
1065;;;;;;;;;;;;;;;;;;;;;
1067;;;;;;;;;;;;;;;;;;;;;
1069;;;;;;;;;;;;;;;;;;;;;
1071;;;;;;;;;;;;;;;;;;;;;
1073;;;;;;;;;;;;;;;;;;;;;
1075;;;;;;;;;;;;;;;;;;;;;
1077;;;;;;;;;;;;;;;;;;;;;
1079;;;;;;;;;;;;;;;;;;;;;
1081;;;;;;;;;;;;;;;;;;;;;
1083;;;;;;;;;;;;;;;;;;;;;
1085;;;;;;;;;;;;;;;;;;;;;
1087;;;;;;;;;;;;;;;;;;;;;
1089;;;;;;;;;;;;;;;;;;;;;
1091;;;;;;;;;;;;;;;;;;;;;
1093;;;;;;;;;;;;;;;;;;;;;
1095;;;;;;;;;;;;;;;;;;;;;
1097;;;;;;;;;;;;;;;;;;;;;
1099;;;;;;;;;;;;;;;;;;;;;
1101;;;;;;;;;;;;;;;;;;;;;
1103;;;;;;;;;;;;;;;;;;;;;
1105;;;;;;;;;;;;;;;;;;;;;
1107;;;;;;;;;;;;;;;;;;;;;
1109;;;;;;;;;;;;;;;;;;;;;
1111;;;;;;;;;;;;;;;;;;;;;
1113;;;;;;;;;;;;;;;;;;;;;
1115;;;;;;;;;;;;;;;;;;;;;
1117;;;;;;;;;;;;;;;;;;;;;
1119;;;;;;;;;;;;;;;;;;;;;
1121;;;;;;;;;;;;;;;;;;;;;
1123;;;;;;;;;;;;;;;;;;;;;
1125;;;;;;;;;;;;;;;;;;;;;
1127;;;;;;;;;;;;;;;;;;;;;
1129;;;;;;;;;;;;;;;;;;;;;
1131;;;;;;;;;;;;;;;;;;;;;
1133;;;;;;;;;;;;;;;;;;;;;
1135;;;;;;;;;;;;;;;;;;;;;
1137;;;;;;;;;;;;;;;;;;;;;
1139;;;;;;;;;;;;;;;;;;;;;
1141;;;;;;;;;;;;;;;;;;;;;
1143;;;;;;;;;;;;;;;;;;;;;
1145;;;;;;;;;;;;;;;;;;;;;
1147;;;;;;;;;;;;;;;;;;;;;
1149;;;;;;;;;;;;;;;;;;;;;
1151;;;;;;;;;;;;;;;;;;;;;
1153;;;;;;;;;;;;;;;;;;;;;
1155;;;;;;;;;;;;;;;;;;;;;
1157;;;;;;;;;;;;;;;;;;;;;
1159;;;;;;;;;;;;;;;;;;;;;
1161;;;;;;;;;;;;;;;;;;;;;
1163;;;;;;;;;;;;;;;;;;;;;
1165;;;;;;;;;;;;;;;;;;;;;
1167;;;;;;;;;;;;;;;;;;;;;
1169;;;;;;;;;;;;;;;;;;;;;
1171;;;;;;;;;;;;;;;;;;;;;
1173;;;;;;;;;;;;;;;;;;;;;
1175;;;;;;;;;;;;;;;;;;;;;
1177;;;;;;;;;;;;;;;;;;;;;
1179;;;;;;;;;;;;;;;;;;;;;
1181;;;;;;;;;;;;;;;;;;;;;
1183;;;;;;;;;;;;;;;;;;;;;
1185;;;;;;;;;;;;;;;;;;;;;
1187;;;;;;;;;;;;;;;;;;;;;
1189;;;;;;;;;;;;;;;;;;;;;
1191;;;;;;;;;;;;;;;;;;;;;
1193;;;;;;;;;;;;;;;;;;;;;
1195;;;;;;;;;;;;;;;;;;;;;
1197;;;;;;;;;;;;;;;;;;;;;
1199;;;;;;;;;;;;;;;;;;;;;
1201;;;;;;;;;;;;;;;;;;;;;
1203;;;;;;;;;;;;;;;;;;;;;
1205;;;;;;;;;;;;;;;;;;;;;
1207;;;;;;;;;;;;;;;;;;;;;
1209;;;;;;;;;;;;;;;;;;;;;
1211;;;;;;;;;;;;;;;;;;;;;
1213;;;;;;;;;;;;;;;;;;;;;
1215;;;;;;;;;;;;;;;;;;;;;
1217;;;;;;;;;;;;;;;;;;;;;
1219;;;;;;;;;;;;;;;;;;;;;
1221;;;;;;;;;;;;;;;;;;;;;
1223;;;;;;;;;;;;;;;;;;;;;
1225;;;;;;;;;;;;;;;;;;;;;
1227;;;;;;;;;;;;;;;;;;;;;
1229;;;;;;;;;;;;;;;;;;;;;
1231;;;;;;;;;;;;;;;;;;;;;
1233;;;;;;;;;;;;;;;;;;;;;
1235;;;;;;;;;;;;;;;;;;;;;
1237;;;;;;;;;;;;;;;;;;;;;
1239;;;;;;;;;;;;;;;;;;;;;
1241;;;;;;;;;;;;;;;;;;;;;
1243;;;;;;;;;;;;;;;;;;;;;
1245;;;;;;;;;;;;;;;;;;;;;
1247;;;;;;;;;;;;;;;;;;;;;
1249;;;;;;;;;;;;;;;;;;;;;
1251;;;;;;;;;;;;;;;;;;;;;
1253;;;;;;;;;;;;;;;;;;;;;
1255;;;;;;;;;;;;;;;;;;;;;
1257;;;;;;;;;;;;;;;;;;;;;
1259;;;;;;;;;;;;;;;;;;;;;
1261;;;;;;;;;;;;;;;;;;;;;
1263;;;;;;;;;;;;;;;;;;;;;
1265;;;;;;;;;;;;;;;;;;;;;
1267;;;;;;;;;;;;;;;;;;;;;
1269;;;;;;;;;;;;;;;;;;;;;
1271;;;;;;;;;;;;;;;;;;;;;
1273;;;;;;;;;;;;;;;;;;;;;
1275;;;;;;;;;;;;;;;;;;;;;
1277;;;;;;;;;;;;;;;;;;;;;
1279;;;;;;;;;;;;;;;;;;;;;
1281;;;;;;;;;;;;;;;;;;;;;
1283;;;;;;;;;;;;;;;;;;;;;
1285;;;;;;;;;;;;;;;;;;;;;
1287;;;;;;;;;;;;;;;;;;;;;
1289;;;;;;;;;;;;;;;;;;;;;
1291;;;;;;;;;;;;;;;;;;;;;
1293;;;;;;;;;;;;;;;;;;;;;
1295;;;;;;;;;;;;;;;;;;;;;
1297;;;;;;;;;;;;;;;;;;;;;
1299;;;;;;;;;;;;;;;;;;;;;
1301;;;;;;;;;;;;;;;;;;;;;
1303;;;;;;;;;;;;;;;;;;;;;
1305;;;;;;;;;;;;;;;;;;;;;
1307;;;;;;;;;;;;;;;;;;;;;
1309;;;;;;;;;;;;;;;;;;;;;
1311;;;;;;;;;;;;;;;;;;;;;
1313;;;;;;;;;;;;;;;;;;;;;
1315;;;;;;;;;;;;;;;;;;;;;
1317;;;;;;;;;;;;;;;;;;;;;
1319;;;;;;;;;;;;;;;;;;;;;
1321;;;;;;;;;;;;;;;;;;;;;
1323;;;;;;;;;;;;;;;;;;;;;
1325;;;;;;;;;;;;;;;;;;;;;
1327;;;;;;;;;;;;;;;;;;;;;
1329;;;;;;;;;;;;;;;;;;;;;
1331;;;;;;;;;;;;;;;;;;;;;
1333;;;;;;;;;;;;;;;;;;;;;
1335;;;;;;;;;;;;;;;;;;;;;
1337;;;;;;;;;;;;;;;;;;;;;
1339;;;;;;;;;;;;;;;;;;;;;
1341;;;;;;;;;;;;;;;;;;;;;
1343;;;;;;;;;;;;;;;;;;;;;
1345;;;;;;;;;;;;;;;;;;;;;
1347;;;;;;;;;;;;;;;;;;;;;
1349;;;;;;;;;;;;;;;;;;;;;
1351;;;;;;;;;;;;;;;;;;;;;
1353;;;;;;;;;;;;;;;;;;;;;
1355;;;;;;;;;;;;;;;;;;;;;
1357;;;;;;;;;;;;;;;;;;;;;
1359;;;;;;;;;;;;;;;;;;;;;
1361;;;;;;;;;;;;;;;;;;;;;
1363;;;;;;;;;;;;;;;;;;;;;
1365;;;;;;;;;;;;;;;;;;;;;
1367;;;;;;;;;;;;;;;;;;;;;
1369;;;;;;;;;;;;;;;;;;;;;
1371;;;;;;;;;;;;;;;;;;;;;
1373;;;;;;;;;;;;;;;;;;;;;
1375;;;;;;;;;;;;;;;;;;;;;
1377;;;;;;;;;;;;;;;;;;;;;
1379;;;;;;;;;;;;;;;;;;;;;
1381;;;;;;;;;;;;;;;;;;;;;
1383;;;;;;;;;;;;;;;;;;;;;
1385;;;;;;;;;;;;;;;;;;;;;
1387;;;;;;;;;;;;;;;;;;;;;
1389;;;;;;;;;;;;;;;;;;;;;
1391;;;;;;;;;;;;;;;;;;;;;
1393;;;;;;;;;;;;;;;;;;;;;
1395;;;;;;;;;;;;;;;;;;;;;
1397;;;;;;;;;;;;;;;;;;;;;
1399;;;;;;;;;;;;;;;;;;;;;
1401;;;;;;;;;;;;;;;;;;;;;
1403;;;;;;;;;;;;;;;;;;;;;
1405;;;;;;;;;;;;;;;;;;;;;
1407;;;;;;;;;;;;;;;;;;;;;
1409;;;;;;;;;;;;;;;;;;;;;
1411;;;;;;;;;;;;;;;;;;;;;
1413;;;;;;;;;;;;;;;;;;;;;
1415;;;;;;;;;;;;;;;;;;;;;
1417;;;;;;;;;;;;;;;;;;;;;
1419;;;;;;;;;;;;;;;;;;;;;
1421;;;;;;;;;;;;;;;;;;;;;
1423;;;;;;;;;;;;;;;;;;;;;
1425;;;;;;;;;;;;;;;;;;;;;
1427;;;;;;;;;;;;;;;;;;;;;
1429;;;;;;;;;;;;;;;;;;;;;
1431;;;;;;;;;;;;;;;;;;;;;
1433;;;;;;;;;;;;;;;;;;;;;
1435;;;;;;;;;;;;;;;;;;;;;
1437;;;;;;;;;;;;;;;;;;;;;
1439;;;;;;;;;;;;;;;;;;;;;
1441;;;;;;;;;;;;;;;;;;;;;
1443;;;;;;;;;;;;;;;;;;;;;
1445;;;;;;;;;;;;;;;;;;;;;
1447;;;;;;;;;;;;;;;;;;;;;
1449;;;;;;;;;;;;;;;;;;;;;
1451;;;;;;;;;;;;;;;;;;;;;
1453;;;;;;;;;;;;;;;;;;;;;
1455;;;;;;;;;;;;;;;;;;;;;
1457;;;;;;;;;;;;;;;;;;;;;
1459;;;;;;;;;;;;;;;;;;;;;
1461;;;;;;;;;;;;;;;;;;;;;
1463;;;;;;;;;;;;;;;;;;;;;
1465;;;;;;;;;;;;;;;;;;;;;
1467;;;;;;;;;;;;;;;;;;;;;
1469;;;;;;;;;;;;;;;;;;;;;
1471;;;;;;;;;;;;;;;;;;;;;
1473;;;;;;;;;;;;;;;;;;;;;
1475;;;;;;;;;;;;;;;;;;;;;
1477;;;;;;;;;;;;;;;;;;;;;
1479;;;;;;;;;;;;;;;;;;;;;
1481;;;;;;;;;;;;;;;;;;;;;
1483;;;;;;;;;;;;;;;;;;;;;
1485;;;;;;;;;;;;;;;;;;;;;
1487;;;;;;;;;;;;;;;;;;;;;
1489;;;;;;;;;;;;;;;;;;;;;
1491;;;;;;;;;;;;;;;;;;;;;
1493;;;;;;;;;;;;;;;;;;;;;
1495;;;;;;;;;;;;;;;;;;;;;
1497;;;;;;;;;;;;;;;;;;;;;
1499;;;;;;;;;;;;;;;;;;;;;
1501;;;;;;;;;;;;;;;;;;;;;
1503;;;;;;;;;;;;;;;;;;;;;
1505;;;;;;;;;;;;;;;;;;;;;
1507;;;;;;;;;;;;;;;;;;;;;
1509;;;;;;;;;;;;;;;;;;;;;
1511;;;;;;;;;;;;;;;;;;;;;
1513;;;;;;;;;;;;;;;;;;;;;
1515;;;;;;;;;;;;;;;;;;;;;
1517;;;;;;;;;;;;;;;;;;;;;
1519;;;;;;;;;;;;;;;;;;;;;
1521;;;;;;;;;;;;;;;;;;;;;
1523;;;;;;;;;;;;;;;;;;;;;
1525;;;;;;;;;;;;;;;;;;;;;
1527;;;;;;;;;;;;;;;;;;;;;
1529;;;;;;;;;;;;;;;;;;;;;
1531;;;;;;;;;;;;;;;;;;;;;
1533;;;;;;;;;;;;;;;;;;;;;
1535;;;;;;;;;;;;;;;;;;;;;
1537;;;;;;;;;;;;;;;;;;;;;
1539;;;;;;;;;;;;;;;;;;;;;
1541;;;;;;;;;;;;;;;;;;;;;
1543;;;;;;;;;;;;;;;;;;;;;
1545;;;;;;;;;;;;;;;;;;;;;
1547;;;;;;;;;;;;;;;;;;;;;
1549;;;;;;;;;;;;;;;;;;;;;
1551;;;;;;;;;;;;;;;;;;;;;
1553;;;;;;;;;;;;;;;;;;;;;
1555;;;;;;;;;;;;;;;;;;;;;
1557;;;;;;;;;;;;;;;;;;;;;
1559;;;;;;;;;;;;;;;;;;;;;
1561;;;;;;;;;;;;;;;;;;;;;
1563;;;;;;;;;;;;;;;;;;;;;
1565;;;;;;;;;;;;;;;;;;;;;
1567;;;;;;;;;;;;;;;;;;;;;
1569;;;;;;;;;;;;;;;;;;;;;
1571;;;;;;;;;;;;;;;;;;;;;
1573;;;;;;;;;;;;;;;;;;;;;
1575;;;;;;;;;;;;;;;;;;;;;
1577;;;;;;;;;;;;;;;;;;;;;
1579;;;;;;;;;;;;;;;;;;;;;
1581;;;;;;;;;;;;;;;;;;;;;
1583;;;;;;;;;;;;;;;;;;;;;
1585;;;;;;;;;;;;;;;;;;;;;
1587;;;;;;;;;;;;;;;;;;;;;
1589;;;;;;;;;;;;;;;;;;;;;
1591;;;;;;;;;;;;;;;;;;;;;
1593;;;;;;;;;;;;;;;;;;;;;
1595;;;;;;;;;;;;;;;;;;;;;
1597;;;;;;;;;;;;;;;;;;;;;
1599;;;;;;;;;;;;;;;;;;;;;
1601;;;;;;;;;;;;;;;;;;;;;
1603;;;;;;;;;;;;;;;;;;;;;
1605;;;;;;;;;;;;;;;;;;;;;
1607;;;;;;;;;;;;;;;;;;;;;
1609;;;;;;;;;;;;;;;;;;;;;
1611;;;;;;;;;;;;;;;;;;;;;
1613;;;;;;;;;;;;;;;;;;;;;
1615;;;;;;;;;;;;;;;;;;;;;
1617;;;;;;;;;;;;;;;;;;;;;
1619;;;;;;;;;;;;;;;;;;;;;
1621;;;;;;;;;;;;;;;;;;;;;
1623;;;;;;;;;;;;;;;;;;;;;
1625;;;;;;;;;;;;;;;;;;;;;
1627;;;;;;;;;;;;;;;;;;;;;
1629;;;;;;;;;;;;;;;;;;;;;
1631;;;;;;;;;;;;;;;;;;;;;
1633;;;;;;;;;;;;;;;;;;;;;
1635;;;;;;;;;;;;;;;;;;;;;
1637;;;;;;;;;;;;;;;;;;;;;
1639;;;;;;;;;;;;;;;;;;;;;
1641;;;;;;;;;;;;;;;;;;;;;
1643;;;;;;;;;;;;;;;;;;;;;
1645;;;;;;;;;;;;;;;;;;;;;
1647;;;;;;;;;;;;;;;;;;;;;
1649;;;;;;;;;;;;;;;;;;;;;
1651;;;;;;;;;;;;;;;;;;;;;
1653;;;;;;;;;;;;;;;;;;;;;
1655;;;;;;;;;;;;;;;;;;;;;
1657;;;;;;;;;;;;;;;;;;;;;
1659;;;;;;;;;;;;;;;;;;;;;
1661;;;;;;;;;;;;;;;;;;;;;
1663;;;;;;;;;;;;;;;;;;;;;
1665;;;;;;;;;;;;;;;;;;;;;
1667;;;;;;;;;;;;;;;;;;;;;
1669;;;;;;;;;;;;;;;;;;;;;
1671;;;;;;;;;;;;;;;;;;;;;
1673;;;;;;;;;;;;;;;;;;;;;
1675;;;;;;;;;;;;;;;;;;;;;
1677;;;;;;;;;;;;;;;;;;;;;
1679;;;;;;;;;;;;;;;;;;;;;
1681;;;;;;;;;;;;;;;;;;;;;
1683;;;;;;;;;;;;;;;;;;;;;
1685;;;;;;;;;;;;;;;;;;;;;
1687;;;;;;;;;;;;;;;;;;;;;
1689;;;;;;;;;;;;;;;;;;;;;
1691;;;;;;;;;;;;;;;;;;;;;
1693;;;;;;;;;;;;;;;;;;;;;
1695;;;;;;;;;;;;;;;;;;;;;
1697;;;;;;;;;;;;;;;;;;;;;
1699;;;;;;;;;;;;;;;;;;;;;
1701;;;;;;;;;;;;;;;;;;;;;
1703;;;;;;;;;;;;;;;;;;;;;
1705;;;;;;;;;;;;;;;;;;;;;
1707;;;;;;;;;;;;;;;;;;;;;
1709;;;;;;;;;;;;;;;;;;;;;
1711;;;;;;;;;;;;;;;;;;;;;
1713;;;;;;;;;;;;;;;;;;;;;
1715;;;;;;;;;;;;;;;;;;;;;
1717;;;;;;;;;;;;;;;;;;;;;
1719;;;;;;;;;;;;;;;;;;;;;
1721;;;;;;;;;;;;;;;;;;;;;
1723;;;;;;;;;;;;;;;;;;;;;
1725;;;;;;;;;;;;;;;;;;;;;
1727;;;;;;;;;;;;;;;;;;;;;
1729;;;;;;;;;;;;;;;;;;;;;
1731;;;;;;;;;;;;;;;;;;;;;
1733;;;;;;;;;;;;;;;;;;;;;
1735;;;;;;;;;;;;;;;;;;;;;
1737;;;;;;;;;;;;;;;;;;;;;
1739;;;;;;;;;;;;;;;;;;;;;
1741;;;;;;;;;;;;;;;;;;;;;
1743;;;;;;;;;;;;;;;;;;;;;
1745;;;;;;;;;;;;;;;;;;;;;
1747;;;;;;;;;;;;;;;;;;;;;
1749;;;;;;;;;;;;;;;;;;;;;
1751;;;;;;;;;;;;;;;;;;;;;
1753;;;;;;;;;;;;;;;;;;;;;
1755;;;;;;;;;;;;;;;;;;;;;
1757;;;;;;;;;;;;;;;;;;;;;
1759;;;;;;;;;;;;;;;;;;;;;
1761;;;;;;;;;;;;;;;;;;;;;
1763;;;;;;;;;;;;;;;;;;;;;
1765;;;;;;;;;;;;;;;;;;;;;
1767;;;;;;;;;;;;;;;;;;;;;
1769;;;;;;;;;;;;;;;;;;;;;
1771;;;;;;;;;;;;;;;;;;;;;
1773;;;;;;;;;;;;;;;;;;;;;
1775;;;;;;;;;;;;;;;;;;;;;
1777;;;;;;;;;;;;;;;;;;;;;
1779;;;;;;;;;;;;;;;;;;;;;
1781;;;;;;;;;;;;;;;;;;;;;
1783;;;;;;;;;;;;;;;;;;;;;
1785;;;;;;;;;;;;;;;;;;;;;
1787;;;;;;;;;;;;;;;;;;;;;
1789;;;;;;;;;;;;;;;;;;;;;
1791;;;;;;;;;;;;;;;;;;;;;
1793;;;;;;;;;;;;;;;;;;;;;
1795;;;;;;;;;;;;;;;;;;;;;
1797;;;;;;;;;;;;;;;;;;;;;
1799;;;;;;;;;;;;;;;;;;;;;
1801;;;;;;;;;;;;;;;;;;;;;
1803;;;;;;;;;;;;;;;;;;;;;
1805;;;;;;;;;;;;;;;;;;;;;
1807;;;;;;;;;;;;;;;;;;;;;
1809;;;;;;;;;;;;;;;;;;;;;
1811;;;;;;;;;;;;;;;;;;;;;
1813;;;;;;;;;;;;;;;;;;;;;
1815;;;;;;;;;;;;;;;;;;;;;
1817;;;;;;;;;;;;;;;;;;;;;
1819;;;;;;;;;;;;;;;;;;;;;
1821;;;;;;;;;;;;;;;;;;;;;
1823;;;;;;;;;;;;;;;;;;;;;
1825;;;;;;;;;;;;;;;;;;;;;
1827;;;;;;;;;;;;;;;;;;;;;
1829;;;;;;;;;;;;;;;;;;;;;
1831;;;;;;;;;;;;;;;;;;;;;
1833;;;;;;;;;;;;;;;;;;;;;
1835;;;;;;;;;;;;;;;;;;;;;
1837;;;;;;;;;;;;;;;;;;;;;
1839;;;;;;;;;;;;;;;;;;;;;
1841;;;;;;;;;;;;;;;;;;;;;
1843;;;;;;;;;;;;;;;;;;;;;
1845;;;;;;;;;;;;;;;;;;;;;
1847;;;;;;;;;;;;;;;;;;;;;
1849;;;;;;;;;;;;;;;;;;;;;
1851;;;;;;;;;;;;;;;;;;;;;
1853;;;;;;;;;;;;;;;;;;;;;
1855;;;;;;;;;;;;;;;;;;;;;
1857;;;;;;;;;;;;;;;;;;;;;
1859;;;;;;;;;;;;;;;;;;;;;
1861;;;;;;;;;;;;;;;;;;;;;
1863;;;;;;;;;;;;;;;;;;;;;
1865;;;;;;;;;;;;;;;;;;;;;
1867;;;;;;;;;;;;;;;;;;;;;
1869;;;;;;;;;;;;;;;;;;;;;
1871;;;;;;;;;;;;;;;;;;;;;
1873;;;;;;;;;;;;;;;;;;;;;
1875;;;;;;;;;;;;;;;;;;;;;
1877;;;;;;;;;;;;;;;;;;;;;
1879;;;;;;;;;;;;;;;;;;;;;
1881;;;;;;;;;;;;;;;;;;;;;
1883;;;;;;;;;;;;;;;;;;;;;
1885;;;;;;;;;;;;;;;;;;;;;
1887;;;;;;;;;;;;;;;;;;;;;
1889;;;;;;;;;;;;;;;;;;;;;
1891;;;;;;;;;;;;;;;;;;;;;
1893;;;;;;;;;;;;;;;;;;;;;
1895;;;;;;;;;;;;;;;;;;;;;
1897;;;;;;;;;;;;;;;;;;;;;
1899;;;;;;;;;;;;;;;;;;;;;
1901;;;;;;;;;;;;;;;;;;;;;
1903;;;;;;;;;;;;;;;;;;;;;
1905;;;;;;;;;;;;;;;;;;;;;
1907;;;;;;;;;;;;;;;;;;;;;
1909;;;;;;;;;;;;;;;;;;;;;
1911;;;;;;;;;;;;;;;;;;;;;
1913;;;;;;;;;;;;;;;;;;;;;
1915;;;;;;;;;;;;;;;;;;;;;
1917;;;;;;;;;;;;;;;;;;;;;
1919;;;;;;;;;;;;;;;;;;;;;
1921;;;;;;;;;;;;;;;;;;;;;
1923;;;;;;;;;;;;;;;;;;;;;
1925;;;;;;;;;;;;;;;;;;;;;
1927;;;;;;;;;;;;;;;;;;;;;
1929;;;;;;;;;;;;;;;;;;;;;
1931;;;;;;;;;;;;;;;;;;;;;
1933;;;;;;;;;;;;;;;;;;;;;
1935;;;;;;;;;;;;;;;;;;;;;
1937;;;;;;;;;;;;;;;;;;;;;
1939;;;;;;;;;;;;;;;;;;;;;
1941;;;;;;;;;;;;;;;;;;;;;
1943;;;;;;;;;;;;;;;;;;;;;
1945;;;;;;;;;;;;;;;;;;;;;
1947;;;;;;;;;;;;;;;;;;;;;
1949;;;;;;;;;;;;;;;;;;;;;
1951;;;;;;;;;;;;;;;;;;;;;
1953;;;;;;;;;;;;;;;;;;;;;
1955;;;;;;;;;;;;;;;;;;;;;
1957;;;;;;;;;;;;;;;;;;;;;
1959;;;;;;;;;;;;;;;;;;;;;
1961;;;;;;;;;;;;;;;;;;;;;
1963;;;;;;;;;;;;;;;;;;;;;
1965;;;;;;;;;;;;;;;;;;;;;
1967;;;;;;;;;;;;;;;;;;;;;
1969;;;;;;;;;;;;;;;;;;;;;
1971;;;;;;;;;;;;;;;;;;;;;
1973;;;;;;;;;;;;;;;;;;;;;
1975;;;;;;;;;;;;;;;;;;;;;
1977;;;;;;;;;;;;;;;;;;;;;
1979;;;;;;;;;;;;;;;;;;;;;
1981;;;;;;;;;;;;;;;;;;;;;
1983;;;;;;;;;;;;;;;;;;;;;
1985;;;;;;;;;;;;;;;;;;;;;
1987;;;;;;;;;;;;;;;;;;;;;
1989;;;;;;;;;;;;;;;;;;;;;
1991;;;;;;;;;;;;;;;;;;;;;
1993;;;;;;;;;;;;;;;;;;;;;
1995;;;;;;;;;;;;;;;;;;;;;
1997;;;;;;;;;;;;;;;;;;;;;
1999;;;;;;;;;;;;;;;;;;;;;
2001;;;;;;;;;;;;;;;;;;;;;
2003;;;;;;;;;;;;;;;;;;;;;
2005;;;;;;;;;;;;;;;;;;;;;
2007;;;;;;;;;;;;;;;;;;;;;
2009;;;;;;;;;;;;;;;;;;;;;
2011;;;;;;;;;;;;;;;;;;;;;
2013;;;;;;;;;;;;;;;;;;;;;
2015;;;;;;;;;;;;;;;;;;;;;
2017;;;;;;;;;;;;;;;;;;;;;
2019;;;;;;;;;;;;;;;;;;;;;
2021;;;;;;;;;;;;;;;;;;;;;
2023;;;;;;;;;;;;;;;;;;;;;
2025;;;;;;;;;;;;;;;;;;;;;
2027;;;;;;;;;;;;;;;;;;;;;
2029;;;;;;;;;;;;;;;;;;;;;
2031;;;;;;;;;;;;;;;;;;;;;
2033;;;;;;;;;;;;;;;;;;;;;
2035;;;;;;;;;;;;;;;;;;;;;
2037;;;;;;;;;;;;;;;;;;;;;
2039;;;;;;;;;;;;;;;;;;;;;
2041;;;;;;;;;;;;;;;;;;;;;
2043;;;;;;;;;;;;;;;;;;;;;
2045;;;;;;;;;;;;;;;;;;;;;
2047;;;;;;;;;;;;;;;;;;;;;
2049;;;;;;;;;;;;;;;;;;;;;
2051;;;;;;;;;;;;;;;;;;;;;
2053;;;;;;;;;;;;;;;;;;;;;
2055;;;;;;;;;;;;;;;;;;;;;
2057;;;;;;;;;;;;;;;;;;;;;
2059;;;;;;;;;;;;;;;;;;;;;
2061;;;;;;;;;;;;;;;;;;;;;
2063;;;;;;;;;;;;;;;;;;;;;
2065;;;;;;;;;;;;;;;;;;;;;
2067;;;;;;;;;;;;;;;;;;;;;
2069;;;;;;;;;;;;;;;;;;;;;
2071;;;;;;;;;;;;;;;;;;;;;
2073;;;;;;;;;;;;;;;;;;;;;
2075;;;;;;;;;;;;;;;;;;;;;
2077;;;;;;;;;;;;;;;;;;;;;
2079;;;;;;;;;;;;;;;;;;;;;
2081;;;;;;;;;;;;;;;;;;;;;
2083;;;;;;;;;;;;;;;;;;;;;
2085;;;;;;;;;;;;;;;;;;;;;
2087;;;;;;;;;;;;;;;;;;;;;
2089;;;;;;;;;;;;;;;;;;;;;
2091;;;;;;;;;;;;;;;;;;;;;
2093;;;;;;;;;;;;;;;;;;;;;
2095;;;;;;;;;;;;;;;;;;;;;
2097;;;;;;;;;;;;;;;;;;;;;
2099;;;;;;;;;;;;;;;;;;;;;
2101;;;;;;;;;;;;;;;;;;;;;
2103;;;;;;;;;;;;;;;;;;;;;
2105;;;;;;;;;;;;;;;;;;;;;
2107;;;;;;;;;;;;;;;;;;;;;
2109;;;;;;;;;;;;;;;;;;;;;
2111;;;;;;;;;;;;;;;;;;;;;
2113;;;;;;;;;;;;;;;;;;;;;
2115;;;;;;;;;;;;;;;;;;;;;
2117;;;;;;;;;;;;;;;;;;;;;
2119;;;;;;;;;;;;;;;;;;;;;
2121;;;;;;;;;;;;;;;;;;;;;
2123;;;;;;;;;;;;;;;;;;;;;
2125;;;;;;;;;;;;;;;;;;;;;
2127;;;;;;;;;;;;;;;;;;;;;
2129;;;;;;;;;;;;;;;;;;;;;
2131;;;;;;;;;;;;;;;;;;;;;
2133;;;;;;;;;;;;;;;;;;;;;
2135;;;;;;;;;;;;;;;;;;;;;
2137;;;;;;;;;;;;;;;;;;;;;
2139;;;;;;;;;;;;;;;;;;;;;
2141;;;;;;;;;;;;;;;;;;;;;
2143;;;;;;;;;;;;;;;;;;;;;
2145;;;;;;;;;;;;;;;;;;;;;
2147;;;;;;;;;;;;;;;;;;;;;
2149;;;;;;;;;;;;;;;;;;;;;
2151;;;;;;;;;;;;;;;;;;;;;
2153;;;;;;;;;;;;;;;;;;;;;
2155;;;;;;;;;;;;;;;;;;;;;
2157;;;;;;;;;;;;;;;;;;;;;
2159;;;;;;;;;;;;;;;;;;;;;
2161;;;;;;;;;;;;;;;;;;;;;
2163;;;;;;;;;;;;;;;;;;;;;
2165;;;;;;;;;;;;;;;;;;;;;
2167;;;;;;;;;;;;;;;;;;;;;
2169;;;;;;;;;;;;;;;;;;;;;
2171;;;;;;;;;;;;;;;;;;;;;
2173;;;;;;;;;;;;;;;;;;;;;
2175;;;;;;;;;;;;;;;;;;;;;
2177;;;;;;;;;;;;;;;;;;;;;
2179;;;;;;;;;;;;;;;;;;;;;
2181;;;;;;;;;;;;;;;;;;;;;
2183;;;;;;;;;;;;;;;;;;;;;
2185;;;;;;;;;;;;;;;;;;;;;
2187;;;;;;;;;;;;;;;;;;;;;
2189;;;;;;;;;;;;;;;;;;;;;
2191;;;;;;;;;;;;;;;;;;;;;
2193;;;;;;;;;;;;;;;;;;;;;
2195;;;;;;;;;;;;;;;;;;;;;
2197;;;;;;;;;;;;;;;;;;;;;
2199;;;;;;;;;;;;;;;;;;;;;
2201;;;;;;;;;;;;;;;;;;;;;
2203;;;;;;;;;;;;;;;;;;;;;
2205;;;;;;;;;;;;;;;;;;;;;
2207;;;;;;;;;;;;;;;;;;;;;
2209;;;;;;;;;;;;;;;;;;;;;
2211;;;;;;;;;;;;;;;;;;;;;
2213;;;;;;;;;;;;;;;;;;;;;
2215;;;;;;;;;;;;;;;;;;;;;
2217;;;;;;;;;;;;;;;;;;;;;
2219;;;;;;;;;;;;;;;;;;;;;
2221;;;;;;;;;;;;;;;;;;;;;
2223;;;;;;;;;;;;;;;;;;;;;
2225;;;;;;;;;;;;;;;;;;;;;
2227;;;;;;;;;;;;;;;;;;;;;
2229;;;;;;;;;;;;;;;;;;;;;
2231;;;;;;;;;;;;;;;;;;;;;
2233;;;;;;;;;;;;;;;;;;;;;
2235;;;;;;;;;;;;;;;;;;;;;
2237;;;;;;;;;;;;;;;;;;;;;
2239;;;;;;;;;;;;;;;;;;;;;
2241;;;;;;;;;;;;;;;;;;;;;
2243;;;;;;;;;;;;;;;;;;;;;
2245;;;;;;;;;;;;;;;;;;;;;
2247;;;;;;;;;;;;;;;;;;;;;
2249;;;;;;;;;;;;;;;;;;;;;
2251;;;;;;;;;;;;;;;;;;;;;
2253;;;;;;;;;;;;;;;;;;;;;
2255;;;;;;;;;;;;;;;;;;;;;
2257;;;;;;;;;;;;;;;;;;;;;
2259;;;;;;;;;;;;;;;;;;;;;
2261;;;;;;;;;;;;;;;;;;;;;
2263;;;;;;;;;;;;;;;;;;;;;
2265;;;;;;;;;;;;;;;;;;;;;
2267;;;;;;;;;;;;;;;;;;;;;
2269;;;;;;;;;;;;;;;;;;;;;
2271;;;;;;;;;;;;;;;;;;;;;
2273;;;;;;;;;;;;;;;;;;;;;
2275;;;;;;;;;;;;;;;;;;;;;
2277;;;;;;;;;;;;;;;;;;;;;
2279;;;;;;;;;;;;;;;;;;;;;
2281;;;;;;;;;;;;;;;;;;;;;
2283;;;;;;;;;;;;;;;;;;;;;
2285;;;;;;;;;;;;;;;;;;;;;
2287;;;;;;;;;;;;;;;;;;;;;
2289;;;;;;;;;;;;;;;;;;;;;
2291;;;;;;;;;;;;;;;;;;;;;
2293;;;;;;;;;;;;;;;;;;;;;
2295;;;;;;;;;;;;;;;;;;;;;
2297;;;;;;;;;;;;;;;;;;;;;
2299;;;;;;;;;;;;;;;;;;;;;
2301;;;;;;;;;;;;;;;;;;;;;
2303;;;;;;;;;;;;;;;;;;;;;
2305;;;;;;;;;;;;;;;;;;;;;
2307;;;;;;;;;;;;;;;;;;;;;
2309;;;;;;;;;;;;;;;;;;;;;
2311;;;;;;;;;;;;;;;;;;;;;
2313;;;;;;;;;;;;;;;;;;;;;
2315;;;;;;;;;;;;;;;;;;;;;
2317;;;;;;;;;;;;;;;;;;;;;
2319;;;;;;;;;;;;;;;;;;;;;
2321;;;;;;;;;;;;;;;;;;;;;
2323;;;;;;;;;;;;;;;;;;;;;
2325;;;;;;;;;;;;;;;;;;;;;
2327;;;;;;;;;;;;;;;;;;;;;
2329;;;;;;;;;;;;;;;;;;;;;
2331;;;;;;;;;;;;;;;;;;;;;
2333;;;;;;;;;;;;;;;;;;;;;
2335;;;;;;;;;;;;;;;;;;;;;
2337;;;;;;;;;;;;;;;;;;;;;
2339;;;;;;;;;;;;;;;;;;;;;
2341;;;;;;;;;;;;;;;;;;;;;
2343;;;;;;;;;;;;;;;;;;;;;
2345;;;;;;;;;;;;;;;;;;;;;
2347;;;;;;;;;;;;;;;;;;;;;
2349;;;;;;;;;;;;;;;;;;;;;
2351;;;;;;;;;;;;;;;;;;;;;
2353;;;;;;;;;;;;;;;;;;;;;
2355;;;;;;;;;;;;;;;;;;;;;
2357;;;;;;;;;;;;;;;;;;;;;
2359;;;;;;;;;;;;;;;;;;;;;
2361;;;;;;;;;;;;;;;;;;;;;
2363;;;;;;;;;;;;;;;;;;;;;
2365;;;;;;;;;;;;;;;;;;;;;
2367;;;;;;;;;;;;;;;;;;;;;
2369;;;;;;;;;;;;;;;;;;;;;
2371;;;;;;;;;;;;;;;;;;;;;
2373;;;;;;;;;;;;;;;;;;;;;
2375;;;;;;;;;;;;;;;;;;;;;
2377;;;;;;;;;;;;;;;;;;;;;
2379;;;;;;;;;;;;;;;;;;;;;
2381;;;;;;;;;;;;;;;;;;;;;
2383;;;;;;;;;;;;;;;;;;;;;
2385;;;;;;;;;;;;;;;;;;;;;
2387;;;;;;;;;;;;;;;;;;;;;
2389;;;;;;;;;;;;;;;;;;;;;
2391;;;;;;;;;;;;;;;;;;;;;
2393;;;;;;;;;;;;;;;;;;;;;
2395;;;;;;;;;;;;;;;;;;;;;
2397;;;;;;;;;;;;;;;;;;;;;
2399;;;;;;;;;;;;;;;;;;;;;
2401;;;;;;;;;;;;;;;;;;;;;
2403;;;;;;;;;;;;;;;;;;;;;
2405;;;;;;;;;;;;;;;;;;;;;
2407;;;;;;;;;;;;;;;;;;;;;
2409;;;;;;;;;;;;;;;;;;;;;
2411;;;;;;;;;;;;;;;;;;;;;
2413;;;;;;;;;;;;;;;;;;;;;
2415;;;;;;;;;;;;;;;;;;;;;
2417;;;;;;;;;;;;;;;;;;;;;
2419;;;;;;;;;;;;;;;;;;;;;
2421;;;;;;;;;;;;;;;;;;;;;
2423;;;;;;;;;;;;;;;;;;;;;
2425;;;;;;;;;;;;;;;;;;;;;
2427;;;;;;;;;;;;;;;;;;;;;
2429;;;;;;;;;;;;;;;;;;;;;
2431;;;;;;;;;;;;;;;;;;;;;
2433;;;;;;;;;;;;;;;;;;;;;
2435;;;;;;;;;;;;;;;;;;;;;
2437;;;;;;;;;;;;;;;;;;;;;
2439;;;;;;;;;;;;;;;;;;;;;
2441;;;;;;;;;;;;;;;;;;;;;
2443;;;;;;;;;;;;;;;;;;;;;
2445;;;;;;;;;;;;;;;;;;;;;
2447;;;;;;;;;;;;;;;;;;;;;
2449;;;;;;;;;;;;;;;;;;;;;
2451;;;;;;;;;;;;;;;;;;;;;
2453;;;;;;;;;;;;;;;;;;;;;
2455;;;;;;;;;;;;;;;;;;;;;
2457;;;;;;;;;;;;;;;;;;;;;
2459;;;;;;;;;;;;;;;;;;;;;
2461;;;;;;;;;;;;;;;;;;;;;
2463;;;;;;;;;;;;;;;;;;;;;
2465;;;;;;;;;;;;;;;;;;;;;
2467;;;;;;;;;;;;;;;;;;;;;
2469;;;;;;;;;;;;;;;;;;;;;
2471;;;;;;;;;;;;;;;;;;;;;
2473;;;;;;;;;;;;;;;;;;;;;
2475;;;;;;;;;;;;;;;;;;;;;
2477;;;;;;;;;;;;;;;;;;;;;
2479;;;;;;;;;;;;;;;;;;;;;
2481;;;;;;;;;;;;;;;;;;;;;
2483;;;;;;;;;;;;;;;;;;;;;
2485;;;;;;;;;;;;;;;;;;;;;
2487;;;;;;;;;;;;;;;;;;;;;
2489;;;;;;;;;;;;;;;;;;;;;
2491;;;;;;;;;;;;;;;;;;;;;
2493;;;;;;;;;;;;;;;;;;;;;
2495;;;;;;;;;;;;;;;;;;;;;