File: carbon_superP/O2_0250rpm.txt
Index;Column 2 (V);Column 3 (V);Column 4 (V);Column 5 (V);Column 6 (V/s);Column 7 (V);Time (s);Potential applied (V);WE(1).Current (A);WE(1).Potential (V);Scan;Column 13 (RPM);ω (rad/s)
1;0.1;0.11;-0.9;-0.01;0.01;-0.00244;6221;-0.014801;-7.17468e-07;-0.014505;3;250;26.1799
3;;;;;;;6221.49;-0.0196838;-1.33392e-06;-0.0193756;3;;
5;;;;;;;6221.98;-0.0245667;-2.30957e-06;-0.0241943;3;;
7;;;;;;;6222.46;-0.0294495;-3.84796e-06;-0.0290619;3;;
9;;;;;;;6222.95;-0.0343323;-6.23779e-06;-0.0339844;3;;
11;;;;;;;6223.44;-0.0392151;-9.87549e-06;-0.0388489;3;;
13;;;;;;;6223.93;-0.0440979;-1.52924e-05;-0.0437103;3;;
15;;;;;;;6224.42;-0.0489807;-2.30713e-05;-0.0485626;3;;
17;;;;;;;6224.91;-0.0538635;-3.38074e-05;-0.0531311;3;;
19;;;;;;;6225.39;-0.0587463;-4.79706e-05;-0.0583801;3;;
21;;;;;;;6225.88;-0.0636292;-6.58264e-05;-0.0632324;3;;
23;;;;;;;6226.37;-0.068512;-8.74634e-05;-0.0681152;3;;
25;;;;;;;6226.86;-0.0733948;-0.00011264;-0.0729675;3;;
27;;;;;;;6227.35;-0.0782776;-0.000140961;-0.0778198;3;;
29;;;;;;;6227.84;-0.0831604;-0.000171814;-0.0826416;3;;
31;;;;;;;6228.32;-0.0880432;-0.000204529;-0.0874939;3;;
33;;;;;;;6228.81;-0.092926;-0.000238403;-0.0923157;3;;
35;;;;;;;6229.3;-0.0978088;-0.000272552;-0.0971375;3;;
37;;;;;;;6229.79;-0.102692;-0.000305908;-0.101868;3;;
39;;;;;;;6230.28;-0.107574;-0.000337463;-0.107147;3;;
41;;;;;;;6230.76;-0.112457;-0.000365692;-0.11203;3;;
43;;;;;;;6231.25;-0.11734;-0.00038855;-0.116882;3;;
45;;;;;;;6231.74;-0.122223;-0.000404388;-0.121765;3;;
47;;;;;;;6232.23;-0.127106;-0.000410461;-0.126648;3;;
49;;;;;;;6232.72;-0.131989;-0.000404785;-0.1315;3;;
51;;;;;;;6233.21;-0.136871;-0.00038797;-0.136353;3;;
53;;;;;;;6233.69;-0.141754;-0.000366882;-0.141266;3;;
55;;;;;;;6234.18;-0.146637;-0.00035199;-0.146118;3;;
57;;;;;;;6234.67;-0.15152;-0.000346436;-0.151001;3;;
59;;;;;;;6235.16;-0.156403;-0.000346161;-0.155914;3;;
61;;;;;;;6235.65;-0.161285;-0.000347687;-0.160797;3;;
63;;;;;;;6236.14;-0.166168;-0.00034964;-0.165619;3;;
65;;;;;;;6236.62;-0.171051;-0.000351685;-0.170563;3;;
67;;;;;;;6237.11;-0.175934;-0.00035379;-0.175354;3;;
69;;;;;;;6237.6;-0.180817;-0.000355835;-0.180206;3;;
71;;;;;;;6238.09;-0.185699;-0.000357849;-0.185181;3;;
73;;;;;;;6238.58;-0.190582;-0.000359772;-0.190002;3;;
75;;;;;;;6239.07;-0.195465;-0.000361633;-0.194855;3;;
77;;;;;;;6239.55;-0.200348;-0.000363403;-0.199738;3;;
79;;;;;;;6240.04;-0.205231;-0.000365021;-0.204651;3;;
81;;;;;;;6240.53;-0.210114;-0.000366425;-0.209473;3;;
83;;;;;;;6241.02;-0.214996;-0.000367615;-0.214417;3;;
85;;;;;;;6241.51;-0.219879;-0.000368713;-0.219238;3;;
87;;;;;;;6242;-0.224762;-0.000369751;-0.224152;3;;
89;;;;;;;6242.48;-0.229645;-0.000370758;-0.229034;3;;
91;;;;;;;6242.97;-0.234528;-0.000371674;-0.233856;3;;
93;;;;;;;6243.46;-0.23941;-0.000372528;-0.238678;3;;
95;;;;;;;6243.95;-0.244293;-0.000373322;-0.243622;3;;
97;;;;;;;6244.44;-0.249176;-0.000374115;-0.248505;3;;
99;;;;;;;6244.93;-0.254059;-0.000374878;-0.253387;3;;
101;;;;;;;6245.41;-0.258942;-0.000375641;-0.258209;3;;
103;;;;;;;6245.9;-0.263824;-0.000376343;-0.263092;3;;
105;;;;;;;6246.39;-0.268707;-0.000376953;-0.268036;3;;
107;;;;;;;6246.88;-0.27359;-0.000377502;-0.272827;3;;
109;;;;;;;6247.37;-0.278473;-0.00037796;-0.27771;3;;
111;;;;;;;6247.85;-0.283356;-0.000378418;-0.282562;3;;
113;;;;;;;6248.34;-0.288239;-0.000378906;-0.287506;3;;
115;;;;;;;6248.83;-0.293121;-0.000379364;-0.292328;3;;
117;;;;;;;6249.32;-0.298004;-0.000379852;-0.297241;3;;
119;;;;;;;6249.81;-0.302887;-0.00038028;-0.302094;3;;
121;;;;;;;6250.3;-0.30777;-0.000380615;-0.307007;3;;
123;;;;;;;6250.78;-0.312653;-0.000380951;-0.311859;3;;
125;;;;;;;6251.27;-0.317535;-0.000381287;-0.316772;3;;
127;;;;;;;6251.76;-0.322418;-0.000381592;-0.321564;3;;
129;;;;;;;6252.25;-0.327301;-0.000381897;-0.326508;3;;
131;;;;;;;6252.74;-0.332184;-0.000382233;-0.33136;3;;
133;;;;;;;6253.23;-0.337067;-0.000382599;-0.336212;3;;
135;;;;;;;6253.71;-0.341949;-0.000382965;-0.341095;3;;
137;;;;;;;6254.2;-0.346832;-0.000383392;-0.346008;3;;
139;;;;;;;6254.69;-0.351715;-0.000383728;-0.350861;3;;
141;;;;;;;6255.18;-0.356598;-0.000384003;-0.355743;3;;
143;;;;;;;6255.67;-0.361481;-0.000384155;-0.360596;3;;
145;;;;;;;6256.16;-0.366364;-0.000384308;-0.365479;3;;
147;;;;;;;6256.64;-0.371246;-0.00038443;-0.370331;3;;
149;;;;;;;6257.13;-0.376129;-0.000384613;-0.375305;3;;
151;;;;;;;6257.62;-0.381012;-0.000384827;-0.380157;3;;
153;;;;;;;6258.11;-0.385895;-0.000385101;-0.384979;3;;
155;;;;;;;6258.6;-0.390778;-0.000385406;-0.389862;3;;
157;;;;;;;6259.09;-0.39566;-0.000385712;-0.394775;3;;
159;;;;;;;6259.57;-0.400543;-0.000385956;-0.399628;3;;
161;;;;;;;6260.06;-0.405426;-0.000386108;-0.40451;3;;
163;;;;;;;6260.55;-0.410309;-0.00038623;-0.409424;3;;
165;;;;;;;6261.04;-0.415192;-0.000386322;-0.414246;3;;
167;;;;;;;6261.53;-0.420074;-0.000386383;-0.419098;3;;
169;;;;;;;6262.01;-0.424957;-0.000386566;-0.423981;3;;
171;;;;;;;6262.5;-0.42984;-0.000386841;-0.428833;3;;
173;;;;;;;6262.99;-0.434723;-0.000387177;-0.433807;3;;
175;;;;;;;6263.48;-0.439606;-0.000387543;-0.438599;3;;
177;;;;;;;6263.97;-0.444489;-0.000387817;-0.443451;3;;
179;;;;;;;6264.46;-0.449371;-0.000388;-0.448364;3;;
181;;;;;;;6264.94;-0.454254;-0.000388092;-0.453217;3;;
183;;;;;;;6265.43;-0.459137;-0.000388123;-0.458099;3;;
185;;;;;;;6265.92;-0.46402;-0.000388184;-0.463013;3;;
187;;;;;;;6266.41;-0.468903;-0.000388275;-0.467834;3;;
189;;;;;;;6266.9;-0.473785;-0.000388458;-0.472748;3;;
191;;;;;;;6267.39;-0.478668;-0.000388702;-0.4776;3;;
193;;;;;;;6267.87;-0.483551;-0.000388977;-0.482513;3;;
195;;;;;;;6268.36;-0.488434;-0.000389282;-0.487335;3;;
197;;;;;;;6268.85;-0.493317;-0.000389587;-0.492218;3;;
199;;;;;;;6269.34;-0.498199;-0.000389832;-0.497131;3;;
201;;;;;;;6269.83;-0.503082;-0.000390076;-0.502014;3;;
203;;;;;;;6270.32;-0.507965;-0.000390289;-0.506775;3;;
205;;;;;;;6270.8;-0.512848;-0.000390564;-0.511688;3;;
207;;;;;;;6271.29;-0.517731;-0.000390869;-0.516541;3;;
209;;;;;;;6271.78;-0.522614;-0.000391174;-0.521423;3;;
211;;;;;;;6272.27;-0.527496;-0.00039151;-0.526367;3;;
213;;;;;;;6272.76;-0.532379;-0.000391876;-0.531189;3;;
215;;;;;;;6273.25;-0.537262;-0.000392303;-0.536072;3;;
217;;;;;;;6273.73;-0.542145;-0.000392731;-0.541016;3;;
219;;;;;;;6274.22;-0.547028;-0.000393036;-0.545807;3;;
221;;;;;;;6274.71;-0.55191;-0.000393219;-0.55072;3;;
223;;;;;;;6275.2;-0.556793;-0.000393463;-0.555573;3;;
225;;;;;;;6275.69;-0.561676;-0.000393646;-0.560455;3;;
227;;;;;;;6276.18;-0.566559;-0.000394043;-0.565338;3;;
229;;;;;;;6276.66;-0.571442;-0.000394501;-0.570221;3;;
231;;;;;;;6277.15;-0.576324;-0.000394989;-0.575073;3;;
233;;;;;;;6277.64;-0.581207;-0.000395599;-0.579956;3;;
235;;;;;;;6278.13;-0.58609;-0.000396271;-0.584839;3;;
237;;;;;;;6278.62;-0.590973;-0.00039682;-0.589722;3;;
239;;;;;;;6279.1;-0.595856;-0.000397186;-0.594635;3;;
241;;;;;;;6279.59;-0.600739;-0.000397491;-0.599457;3;;
243;;;;;;;6280.08;-0.605621;-0.000397736;-0.604309;3;;
245;;;;;;;6280.57;-0.610504;-0.000398041;-0.609222;3;;
247;;;;;;;6281.06;-0.615387;-0.000398285;-0.614044;3;;
249;;;;;;;6281.55;-0.62027;-0.00039856;-0.618958;3;;
251;;;;;;;6282.03;-0.625153;-0.000398895;-0.623871;3;;
253;;;;;;;6282.52;-0.630035;-0.000399292;-0.628754;3;;
255;;;;;;;6283.01;-0.634918;-0.000399719;-0.633575;3;;
257;;;;;;;6283.5;-0.639801;-0.000400024;-0.638489;3;;
259;;;;;;;6283.99;-0.644684;-0.000400238;-0.643433;3;;
261;;;;;;;6284.48;-0.649567;-0.000400391;-0.648224;3;;
263;;;;;;;6284.96;-0.654449;-0.000400543;-0.653168;3;;
265;;;;;;;6285.45;-0.659332;-0.000400665;-0.65802;3;;
267;;;;;;;6285.94;-0.664215;-0.000400818;-0.662903;3;;
269;;;;;;;6286.43;-0.669098;-0.000401031;-0.667755;3;;
271;;;;;;;6286.92;-0.673981;-0.000401367;-0.672607;3;;
273;;;;;;;6287.41;-0.678864;-0.000401642;-0.67746;3;;
275;;;;;;;6287.89;-0.683746;-0.000401703;-0.682465;3;;
277;;;;;;;6288.38;-0.688629;-0.000401733;-0.687286;3;;
279;;;;;;;6288.87;-0.693512;-0.000401825;-0.6922;3;;
281;;;;;;;6289.36;-0.698395;-0.000401886;-0.697021;3;;
283;;;;;;;6289.85;-0.703278;-0.000401855;-0.701935;3;;
285;;;;;;;6290.34;-0.70816;-0.000401825;-0.706818;3;;
287;;;;;;;6290.82;-0.713043;-0.000401855;-0.711639;3;;
289;;;;;;;6291.31;-0.717926;-0.000401825;-0.716614;3;;
291;;;;;;;6291.8;-0.722809;-0.000401794;-0.721497;3;;
293;;;;;;;6292.29;-0.727692;-0.000401794;-0.726349;3;;
295;;;;;;;6292.78;-0.732574;-0.000401917;-0.731232;3;;
297;;;;;;;6293.26;-0.737457;-0.000402252;-0.736115;3;;
299;;;;;;;6293.75;-0.74234;-0.000402588;-0.740997;3;;
301;;;;;;;6294.24;-0.747223;-0.000402588;-0.745819;3;;
303;;;;;;;6294.73;-0.752106;-0.000402466;-0.751648;3;;
305;;;;;;;6295.22;-0.756989;-0.000402161;-0.75592;3;;
307;;;;;;;6295.71;-0.761871;-0.000401855;-0.761108;3;;
309;;;;;;;6296.19;-0.766754;-0.000401642;-0.765686;3;;
311;;;;;;;6296.68;-0.771637;-0.000401459;-0.770569;3;;
313;;;;;;;6297.17;-0.77652;-0.000401276;-0.775452;3;;
315;;;;;;;6297.66;-0.781403;-0.000401123;-0.780334;3;;
317;;;;;;;6298.15;-0.786285;-0.000401123;-0.784607;3;;
319;;;;;;;6298.64;-0.791168;-0.000401093;-0.7901;3;;
321;;;;;;;6299.12;-0.796051;-0.000400879;-0.794983;3;;
323;;;;;;;6299.61;-0.800934;-0.000400574;-0.799866;3;;
325;;;;;;;6300.1;-0.805817;-0.00040033;-0.805054;3;;
327;;;;;;;6300.59;-0.810699;-0.000400177;-0.809631;3;;
329;;;;;;;6301.08;-0.815582;-0.000399994;-0.815125;3;;
331;;;;;;;6301.57;-0.820465;-0.000399689;-0.819702;3;;
333;;;;;;;6302.05;-0.825348;-0.000399414;-0.823975;3;;
335;;;;;;;6302.54;-0.830231;-0.0003992;-0.829163;3;;
337;;;;;;;6303.03;-0.835114;-0.000398895;-0.834045;3;;
339;;;;;;;6303.52;-0.839996;-0.000398651;-0.839233;3;;
341;;;;;;;6304.01;-0.844879;-0.000398254;-0.843811;3;;
343;;;;;;;6304.5;-0.849762;-0.000397797;-0.848999;3;;
345;;;;;;;6304.98;-0.854645;-0.000397369;-0.853271;3;;
347;;;;;;;6305.47;-0.859528;-0.000396942;-0.858765;3;;
349;;;;;;;6305.96;-0.86441;-0.000396545;-0.863342;3;;
351;;;;;;;6306.45;-0.869293;-0.000396301;-0.868225;3;;
353;;;;;;;6306.94;-0.874176;-0.000396179;-0.873718;3;;
355;;;;;;;6307.43;-0.879059;-0.000396118;-0.878296;3;;
357;;;;;;;6307.91;-0.883942;-0.000396057;-0.883484;3;;
359;;;;;;;6308.4;-0.888824;-0.000395966;-0.887756;3;;
361;;;;;;;6308.89;-0.893707;-0.000395782;-0.892944;3;;
363;;;;;;;6309.38;-0.89859;-0.000395508;-0.897827;3;;
365;;;;;;;6309.87;-0.89859;-0.000393616;-0.897827;3;;
367;;;;;;;6310.35;-0.893707;-0.000391876;-0.892639;3;;
369;;;;;;;6310.84;-0.888824;-0.000390991;-0.888062;3;;
371;;;;;;;6311.33;-0.883942;-0.000390503;-0.882874;3;;
373;;;;;;;6311.82;-0.879059;-0.000390228;-0.878601;3;;
375;;;;;;;6312.31;-0.874176;-0.000390198;-0.873718;3;;
377;;;;;;;6312.8;-0.869293;-0.000390381;-0.86853;3;;
379;;;;;;;6313.28;-0.86441;-0.000390564;-0.863647;3;;
381;;;;;;;6313.77;-0.859528;-0.000390686;-0.85907;3;;
383;;;;;;;6314.26;-0.854645;-0.000390778;-0.853882;3;;
385;;;;;;;6314.75;-0.849762;-0.000390991;-0.848694;3;;
387;;;;;;;6315.24;-0.844879;-0.000391235;-0.843811;3;;
389;;;;;;;6315.73;-0.839996;-0.000391541;-0.839233;3;;
391;;;;;;;6316.21;-0.835114;-0.000391815;-0.834045;3;;
393;;;;;;;6316.7;-0.830231;-0.000391998;-0.829468;3;;
395;;;;;;;6317.19;-0.825348;-0.000392212;-0.82428;3;;
397;;;;;;;6317.68;-0.820465;-0.000392365;-0.819397;3;;
399;;;;;;;6318.17;-0.815582;-0.000392517;-0.815125;3;;
401;;;;;;;6318.66;-0.810699;-0.00039267;-0.809631;3;;
403;;;;;;;6319.14;-0.805817;-0.000392914;-0.805054;3;;
405;;;;;;;6319.63;-0.800934;-0.000393219;-0.800171;3;;
407;;;;;;;6320.12;-0.796051;-0.000393494;-0.794983;3;;
409;;;;;;;6320.61;-0.791168;-0.000393707;-0.789795;3;;
411;;;;;;;6321.1;-0.786285;-0.000393799;-0.785217;3;;
413;;;;;;;6321.59;-0.781403;-0.00039386;-0.780334;3;;
415;;;;;;;6322.07;-0.77652;-0.00039389;-0.776062;3;;
417;;;;;;;6322.56;-0.771637;-0.000393951;-0.770569;3;;
419;;;;;;;6323.05;-0.766754;-0.000394012;-0.765686;3;;
421;;;;;;;6323.54;-0.761871;-0.000394196;-0.761108;3;;
423;;;;;;;6324.03;-0.756989;-0.000394348;-0.75592;3;;
425;;;;;;;6324.52;-0.752106;-0.000394501;-0.751038;3;;
427;;;;;;;6325;-0.747223;-0.000394531;-0.74585;3;;
429;;;;;;;6325.49;-0.74234;-0.000394501;-0.740936;3;;
431;;;;;;;6325.98;-0.737457;-0.00039447;-0.736115;3;;
433;;;;;;;6326.47;-0.732574;-0.000394409;-0.731232;3;;
435;;;;;;;6326.96;-0.727692;-0.000394318;-0.726318;3;;
437;;;;;;;6327.44;-0.722809;-0.000394287;-0.721436;3;;
439;;;;;;;6327.93;-0.717926;-0.000394226;-0.716553;3;;
441;;;;;;;6328.42;-0.713043;-0.000394226;-0.7117;3;;
443;;;;;;;6328.91;-0.70816;-0.000394226;-0.706757;3;;
445;;;;;;;6329.4;-0.703278;-0.000394196;-0.701965;3;;
447;;;;;;;6329.89;-0.698395;-0.000394104;-0.697052;3;;
449;;;;;;;6330.37;-0.693512;-0.000393982;-0.6922;3;;
451;;;;;;;6330.86;-0.688629;-0.000393829;-0.687286;3;;
453;;;;;;;6331.35;-0.683746;-0.000393616;-0.682404;3;;
455;;;;;;;6331.84;-0.678864;-0.000393463;-0.677521;3;;
457;;;;;;;6332.33;-0.673981;-0.00039328;-0.672699;3;;
459;;;;;;;6332.82;-0.669098;-0.000393127;-0.667725;3;;
461;;;;;;;6333.3;-0.664215;-0.000393036;-0.662903;3;;
463;;;;;;;6333.79;-0.659332;-0.000392914;-0.657959;3;;
465;;;;;;;6334.28;-0.654449;-0.000392731;-0.653137;3;;
467;;;;;;;6334.77;-0.649567;-0.000392548;-0.648285;3;;
469;;;;;;;6335.26;-0.644684;-0.000392273;-0.643402;3;;
471;;;;;;;6335.75;-0.639801;-0.000391998;-0.638519;3;;
473;;;;;;;6336.23;-0.634918;-0.000391663;-0.633636;3;;
475;;;;;;;6336.72;-0.630035;-0.000391357;-0.628693;3;;
477;;;;;;;6337.21;-0.625153;-0.000391113;-0.623871;3;;
479;;;;;;;6337.7;-0.62027;-0.000390869;-0.618927;3;;
481;;;;;;;6338.19;-0.615387;-0.000390656;-0.614105;3;;
483;;;;;;;6338.68;-0.610504;-0.000390411;-0.609222;3;;
485;;;;;;;6339.16;-0.605621;-0.000390198;-0.60437;3;;
487;;;;;;;6339.65;-0.600739;-0.000389984;-0.599426;3;;
489;;;;;;;6340.14;-0.595856;-0.000389679;-0.594543;3;;
491;;;;;;;6340.63;-0.590973;-0.000389221;-0.589691;3;;
493;;;;;;;6341.12;-0.58609;-0.000388794;-0.584808;3;;
495;;;;;;;6341.6;-0.581207;-0.000388428;-0.579926;3;;
497;;;;;;;6342.09;-0.576324;-0.000388153;-0.575134;3;;
499;;;;;;;6342.58;-0.571442;-0.000387817;-0.57016;3;;
501;;;;;;;6343.07;-0.566559;-0.000387543;-0.565369;3;;
503;;;;;;;6343.56;-0.561676;-0.00038736;-0.560486;3;;
505;;;;;;;6344.05;-0.556793;-0.000387146;-0.555603;3;;
507;;;;;;;6344.53;-0.55191;-0.000386841;-0.550781;3;;
509;;;;;;;6345.02;-0.547028;-0.000386383;-0.545898;3;;
511;;;;;;;6345.51;-0.542145;-0.000385895;-0.540924;3;;
513;;;;;;;6346;-0.537262;-0.000385437;-0.536102;3;;
515;;;;;;;6346.49;-0.532379;-0.000385071;-0.531219;3;;
517;;;;;;;6346.98;-0.527496;-0.000384766;-0.526367;3;;
519;;;;;;;6347.46;-0.522614;-0.00038446;-0.521454;3;;
521;;;;;;;6347.95;-0.517731;-0.000384216;-0.516571;3;;
523;;;;;;;6348.44;-0.512848;-0.000384003;-0.511688;3;;
525;;;;;;;6348.93;-0.507965;-0.000383698;-0.506805;3;;
527;;;;;;;6349.42;-0.503082;-0.000383392;-0.502014;3;;
529;;;;;;;6349.91;-0.498199;-0.000383148;-0.497162;3;;
531;;;;;;;6350.39;-0.493317;-0.000382904;-0.492218;3;;
533;;;;;;;6350.88;-0.488434;-0.000382721;-0.487274;3;;
535;;;;;;;6351.37;-0.483551;-0.000382538;-0.482483;3;;
537;;;;;;;6351.86;-0.478668;-0.000382416;-0.4776;3;;
539;;;;;;;6352.35;-0.473785;-0.000382294;-0.472717;3;;
541;;;;;;;6352.84;-0.468903;-0.000382172;-0.467865;3;;
543;;;;;;;6353.32;-0.46402;-0.00038205;-0.462982;3;;
545;;;;;;;6353.81;-0.459137;-0.000381836;-0.458099;3;;
547;;;;;;;6354.3;-0.454254;-0.000381592;-0.453217;3;;
549;;;;;;;6354.79;-0.449371;-0.000381317;-0.448395;3;;
551;;;;;;;6355.28;-0.444489;-0.000381073;-0.443451;3;;
553;;;;;;;6355.77;-0.439606;-0.000380859;-0.438568;3;;
555;;;;;;;6356.25;-0.434723;-0.000380707;-0.433685;3;;
557;;;;;;;6356.74;-0.42984;-0.000380737;-0.428802;3;;
559;;;;;;;6357.23;-0.424957;-0.000380768;-0.42395;3;;
561;;;;;;;6357.72;-0.420074;-0.000380768;-0.419128;3;;
563;;;;;;;6358.21;-0.415192;-0.000380737;-0.414215;3;;
565;;;;;;;6358.69;-0.410309;-0.000380585;-0.409363;3;;
567;;;;;;;6359.18;-0.405426;-0.000380341;-0.40448;3;;
569;;;;;;;6359.67;-0.400543;-0.000380096;-0.399628;3;;
571;;;;;;;6360.16;-0.39566;-0.000379913;-0.394714;3;;
573;;;;;;;6360.65;-0.390778;-0.0003797;-0.389862;3;;
575;;;;;;;6361.14;-0.385895;-0.000379517;-0.384979;3;;
577;;;;;;;6361.62;-0.381012;-0.000379333;-0.380096;3;;
579;;;;;;;6362.11;-0.376129;-0.000379181;-0.375244;3;;
581;;;;;;;6362.6;-0.371246;-0.000379028;-0.370361;3;;
583;;;;;;;6363.09;-0.366364;-0.000378784;-0.365509;3;;
585;;;;;;;6363.58;-0.361481;-0.00037851;-0.360626;3;;
587;;;;;;;6364.07;-0.356598;-0.000378174;-0.355682;3;;
589;;;;;;;6364.55;-0.351715;-0.00037793;-0.350891;3;;
591;;;;;;;6365.04;-0.346832;-0.000377655;-0.346039;3;;
593;;;;;;;6365.53;-0.341949;-0.000377441;-0.341095;3;;
595;;;;;;;6366.02;-0.337067;-0.000377228;-0.336304;3;;
597;;;;;;;6366.51;-0.332184;-0.000377014;-0.33139;3;;
599;;;;;;;6367;-0.327301;-0.00037674;-0.326508;3;;
601;;;;;;;6367.48;-0.322418;-0.000376373;-0.321625;3;;
603;;;;;;;6367.97;-0.317535;-0.000376068;-0.316742;3;;
605;;;;;;;6368.46;-0.312653;-0.000375702;-0.311859;3;;
607;;;;;;;6368.95;-0.30777;-0.000375336;-0.306976;3;;
609;;;;;;;6369.44;-0.302887;-0.000374939;-0.302063;3;;
611;;;;;;;6369.93;-0.298004;-0.000374634;-0.297272;3;;
613;;;;;;;6370.41;-0.293121;-0.000374298;-0.292328;3;;
615;;;;;;;6370.9;-0.288239;-0.000373962;-0.287476;3;;
617;;;;;;;6371.39;-0.283356;-0.000373566;-0.282593;3;;
619;;;;;;;6371.88;-0.278473;-0.000373077;-0.27771;3;;
621;;;;;;;6372.37;-0.27359;-0.000372559;-0.272858;3;;
623;;;;;;;6372.85;-0.268707;-0.000372009;-0.267975;3;;
625;;;;;;;6373.34;-0.263824;-0.00037149;-0.263153;3;;
627;;;;;;;6373.83;-0.258942;-0.000371033;-0.258179;3;;
629;;;;;;;6374.32;-0.254059;-0.000370483;-0.253387;3;;
631;;;;;;;6374.81;-0.249176;-0.000369873;-0.248444;3;;
633;;;;;;;6375.3;-0.244293;-0.00036911;-0.243652;3;;
635;;;;;;;6375.78;-0.23941;-0.000368256;-0.238739;3;;
637;;;;;;;6376.27;-0.234528;-0.000367371;-0.233856;3;;
639;;;;;;;6376.76;-0.229645;-0.000366425;-0.228973;3;;
641;;;;;;;6377.25;-0.224762;-0.000365448;-0.224121;3;;
643;;;;;;;6377.74;-0.219879;-0.000364319;-0.219269;3;;
645;;;;;;;6378.23;-0.214996;-0.000363159;-0.214355;3;;
647;;;;;;;6378.71;-0.210114;-0.000361877;-0.209473;3;;
649;;;;;;;6379.2;-0.205231;-0.000360474;-0.20462;3;;
651;;;;;;;6379.69;-0.200348;-0.000358948;-0.199707;3;;
653;;;;;;;6380.18;-0.195465;-0.00035733;-0.194855;3;;
655;;;;;;;6380.67;-0.190582;-0.000355499;-0.190002;3;;
657;;;;;;;6381.16;-0.185699;-0.000353394;-0.18512;3;;
659;;;;;;;6381.64;-0.180817;-0.000351044;-0.180237;3;;
661;;;;;;;6382.13;-0.175934;-0.000348358;-0.175385;3;;
663;;;;;;;6382.62;-0.171051;-0.000345276;-0.170502;3;;
665;;;;;;;6383.11;-0.166168;-0.000341736;-0.165558;3;;
667;;;;;;;6383.6;-0.161285;-0.000337555;-0.160736;3;;
669;;;;;;;6384.09;-0.156403;-0.000332642;-0.155884;3;;
671;;;;;;;6384.57;-0.15152;-0.000326843;-0.151001;3;;
673;;;;;;;6385.06;-0.146637;-0.000320007;-0.146118;3;;
675;;;;;;;6385.55;-0.141754;-0.00031192;-0.141266;3;;
677;;;;;;;6386.04;-0.136871;-0.000302429;-0.136414;3;;
679;;;;;;;6386.53;-0.131989;-0.000291412;-0.131531;3;;
681;;;;;;;6387.02;-0.127106;-0.000278809;-0.126587;3;;
683;;;;;;;6387.5;-0.122223;-0.000264557;-0.121765;3;;
685;;;;;;;6387.99;-0.11734;-0.000248749;-0.116882;3;;
687;;;;;;;6388.48;-0.112457;-0.000231506;-0.112091;3;;
689;;;;;;;6388.97;-0.107574;-0.000212799;-0.107147;3;;
691;;;;;;;6389.46;-0.102692;-0.000193054;-0.102264;3;;
693;;;;;;;6389.94;-0.0978088;-0.000172607;-0.0973816;3;;
695;;;;;;;6390.43;-0.092926;-0.000151825;-0.0925293;3;;
697;;;;;;;6390.92;-0.0880432;-0.000131165;-0.0877075;3;;
699;;;;;;;6391.41;-0.0831604;-0.000111084;-0.0828247;3;;
701;;;;;;;6391.9;-0.0782776;-9.198e-05;-0.0779419;3;;
703;;;;;;;6392.39;-0.0733948;-7.42798e-05;-0.0730286;3;;
705;;;;;;;6392.87;-0.068512;-5.83801e-05;-0.0682373;3;;
707;;;;;;;6393.36;-0.0636292;-4.46259e-05;-0.0632935;3;;
709;;;;;;;6393.85;-0.0587463;-3.30231e-05;-0.0584106;3;;
711;;;;;;;6394.34;-0.0538635;-2.36176e-05;-0.0534973;3;;
713;;;;;;;6394.83;-0.0489807;-1.63025e-05;-0.0486023;3;;
715;;;;;;;6395.32;-0.0440979;-1.08246e-05;-0.0437317;3;;
717;;;;;;;6395.8;-0.0392151;-6.8573e-06;-0.038858;3;;
719;;;;;;;6396.29;-0.0343323;-4.10278e-06;-0.0339905;3;;
721;;;;;;;6396.78;-0.0294495;-2.211e-06;-0.0291046;3;;
723;;;;;;;6397.27;-0.0245667;-9.50928e-07;-0.02421875;3;;
725;;;;;;;6397.76;-0.0196838;-1.21765e-07;-0.0193756;3;;
727;;;;;;;6398.25;-0.014801;4.00391e-07;-0.0144867;3;;
729;;;;;;;6398.73;-0.00991821;7.48291e-07;-0.00964355;3;;
731;;;;;;;6399.22;-0.0050354;9.59778e-07;-0.00474243;3;;
733;;;;;;;6399.71;-0.000152588;1.1084e-06;0.000119019;3;;
735;;;;;;;6400.2;0.00473022;1.19354e-06;0.00502625;3;;
737;;;;;;;6400.69;0.00961304;1.25763e-06;0.00989075;3;;
739;;;;;;;6401.18;0.0144958;1.2915e-06;0.0147766;3;;
741;;;;;;;6401.66;0.0193787;1.31897e-06;0.0196716;3;;
743;;;;;;;6402.15;0.0242615;1.3501e-06;0.0245087;3;;
745;;;;;;;6402.64;0.0291443;1.37054e-06;0.0294037;3;;
747;;;;;;;6403.13;0.0340271;1.39496e-06;0.0342896;3;;
749;;;;;;;6403.62;0.0389099;1.41144e-06;0.0391663;3;;
751;;;;;;;6404.1;0.0437927;1.43402e-06;0.0440521;3;;
753;;;;;;;6404.59;0.0486755;1.45294e-06;0.0489441;3;;
755;;;;;;;6405.08;0.0535583;1.47034e-06;0.0535583;3;;
757;;;;;;;6405.57;0.0584412;1.48865e-06;0.0584106;3;;
759;;;;;;;6406.06;0.063324;1.50665e-06;0.0632935;3;;
761;;;;;;;6406.55;0.0682068;1.53412e-06;0.0681763;3;;
763;;;;;;;6407.03;0.0730896;1.56464e-06;0.0730591;3;;
765;;;;;;;6407.52;0.0779724;1.58539e-06;0.0779114;3;;
767;;;;;;;6408.01;0.0828552;1.61835e-06;0.0828247;3;;
769;;;;;;;6408.5;0.087738;1.65619e-06;0.087677;3;;
771;;;;;;;6408.99;0.0926208;1.68579e-06;0.0926208;3;;
773;;;;;;;6409.48;0.0975037;1.72485e-06;0.0974121;3;;
775;;;;;;;6409.96;0.102386;1.77338e-06;0.102295;3;;
777;;;;;;;6410.45;0.107269;1.81519e-06;0.107147;3;;
779;;;;;;;6410.94;0.112152;1.86188e-06;0.11203;3;;
781;;;;;;;6411.43;0.107269;1.5451e-06;0.107208;3;;
783;;;;;;;6411.92;0.102386;1.36353e-06;0.102386;3;;
785;;;;;;;6412.41;0.0975037;1.23688e-06;0.0974731;3;;
787;;;;;;;6412.89;0.0926208;1.1264e-06;0.0926208;3;;
789;;;;;;;6413.38;0.087738;1.03882e-06;0.087738;3;;
791;;;;;;;6413.87;0.0828552;9.64661e-07;0.0828247;3;;
793;;;;;;;6414.36;0.0779724;9.01489e-07;0.0780334;3;;
795;;;;;;;6414.85;0.0730896;8.30994e-07;0.0730896;3;;
797;;;;;;;6415.34;0.0682068;7.89185e-07;0.0682068;3;;
799;;;;;;;6415.82;0.063324;7.34253e-07;0.063324;3;;
801;;;;;;;6416.31;0.0584412;6.90918e-07;0.0584106;3;;
803;;;;;;;6416.8;0.0535583;6.46667e-07;0.0535583;3;;
805;;;;;;;6417.29;0.0486755;6.09741e-07;0.0489532;3;;
807;;;;;;;6417.78;0.0437927;5.70984e-07;0.0440247;3;;
809;;;;;;;6418.27;0.0389099;5.37109e-07;0.0391876;3;;
811;;;;;;;6418.75;0.0340271;5.01709e-07;0.0342896;3;;
813;;;;;;;6419.24;0.0291443;4.66614e-07;0.0294281;3;;
815;;;;;;;6419.73;0.0242615;4.26636e-07;0.0245575;3;;
817;;;;;;;6420.22;0.0193787;3.85132e-07;0.0196686;3;;
819;;;;;;;6420.71;0.0144958;3.31421e-07;0.0147675;3;;
821;;;;;;;6421.19;0.00961304;2.76794e-07;0.0098938;3;;
823;;;;;;;6421.68;0.00473022;2.11487e-07;0.00495911;3;;
825;;;;;;;6422.17;-0.000152588;9.94568e-08;0.000140381;3;;
827;;;;;;;6422.66;-0.0050354;-6.02417e-08;-0.00476074;3;;
829;;;;;;;6423.15;-0.00991821;-3.20129e-07;-0.00960388;3;;
831;;;;;;;;;;;;;
833;;;;;;;;;;;;;
835;;;;;;;;;;;;;
837;;;;;;;;;;;;;
839;;;;;;;;;;;;;
841;;;;;;;;;;;;;
843;;;;;;;;;;;;;
845;;;;;;;;;;;;;
847;;;;;;;;;;;;;
849;;;;;;;;;;;;;
851;;;;;;;;;;;;;
853;;;;;;;;;;;;;
855;;;;;;;;;;;;;
857;;;;;;;;;;;;;
859;;;;;;;;;;;;;
861;;;;;;;;;;;;;
863;;;;;;;;;;;;;
865;;;;;;;;;;;;;
867;;;;;;;;;;;;;
869;;;;;;;;;;;;;
871;;;;;;;;;;;;;
873;;;;;;;;;;;;;
875;;;;;;;;;;;;;
877;;;;;;;;;;;;;
879;;;;;;;;;;;;;
881;;;;;;;;;;;;;
883;;;;;;;;;;;;;
885;;;;;;;;;;;;;
887;;;;;;;;;;;;;
889;;;;;;;;;;;;;
891;;;;;;;;;;;;;
893;;;;;;;;;;;;;
895;;;;;;;;;;;;;
897;;;;;;;;;;;;;
899;;;;;;;;;;;;;
901;;;;;;;;;;;;;
903;;;;;;;;;;;;;
905;;;;;;;;;;;;;
907;;;;;;;;;;;;;
909;;;;;;;;;;;;;
911;;;;;;;;;;;;;
913;;;;;;;;;;;;;
915;;;;;;;;;;;;;
917;;;;;;;;;;;;;
919;;;;;;;;;;;;;
921;;;;;;;;;;;;;
923;;;;;;;;;;;;;
925;;;;;;;;;;;;;
927;;;;;;;;;;;;;
929;;;;;;;;;;;;;
931;;;;;;;;;;;;;
933;;;;;;;;;;;;;
935;;;;;;;;;;;;;
937;;;;;;;;;;;;;
939;;;;;;;;;;;;;
941;;;;;;;;;;;;;
943;;;;;;;;;;;;;
945;;;;;;;;;;;;;
947;;;;;;;;;;;;;
949;;;;;;;;;;;;;
951;;;;;;;;;;;;;
953;;;;;;;;;;;;;
955;;;;;;;;;;;;;
957;;;;;;;;;;;;;
959;;;;;;;;;;;;;
961;;;;;;;;;;;;;
963;;;;;;;;;;;;;
965;;;;;;;;;;;;;
967;;;;;;;;;;;;;
969;;;;;;;;;;;;;
971;;;;;;;;;;;;;
973;;;;;;;;;;;;;
975;;;;;;;;;;;;;
977;;;;;;;;;;;;;
979;;;;;;;;;;;;;
981;;;;;;;;;;;;;
983;;;;;;;;;;;;;
985;;;;;;;;;;;;;
987;;;;;;;;;;;;;
989;;;;;;;;;;;;;
991;;;;;;;;;;;;;
993;;;;;;;;;;;;;
995;;;;;;;;;;;;;
997;;;;;;;;;;;;;
999;;;;;;;;;;;;;
1001;;;;;;;;;;;;;
1003;;;;;;;;;;;;;
1005;;;;;;;;;;;;;
1007;;;;;;;;;;;;;
1009;;;;;;;;;;;;;
1011;;;;;;;;;;;;;
1013;;;;;;;;;;;;;
1015;;;;;;;;;;;;;
1017;;;;;;;;;;;;;
1019;;;;;;;;;;;;;
1021;;;;;;;;;;;;;
1023;;;;;;;;;;;;;
1025;;;;;;;;;;;;;
1027;;;;;;;;;;;;;
1029;;;;;;;;;;;;;
1031;;;;;;;;;;;;;
1033;;;;;;;;;;;;;
1035;;;;;;;;;;;;;
1037;;;;;;;;;;;;;
1039;;;;;;;;;;;;;
1041;;;;;;;;;;;;;
1043;;;;;;;;;;;;;
1045;;;;;;;;;;;;;
1047;;;;;;;;;;;;;
1049;;;;;;;;;;;;;
1051;;;;;;;;;;;;;
1053;;;;;;;;;;;;;
1055;;;;;;;;;;;;;
1057;;;;;;;;;;;;;
1059;;;;;;;;;;;;;
1061;;;;;;;;;;;;;
1063;;;;;;;;;;;;;
1065;;;;;;;;;;;;;
1067;;;;;;;;;;;;;
1069;;;;;;;;;;;;;
1071;;;;;;;;;;;;;
1073;;;;;;;;;;;;;
1075;;;;;;;;;;;;;
1077;;;;;;;;;;;;;
1079;;;;;;;;;;;;;
1081;;;;;;;;;;;;;
1083;;;;;;;;;;;;;
1085;;;;;;;;;;;;;
1087;;;;;;;;;;;;;
1089;;;;;;;;;;;;;
1091;;;;;;;;;;;;;
1093;;;;;;;;;;;;;
1095;;;;;;;;;;;;;
1097;;;;;;;;;;;;;
1099;;;;;;;;;;;;;
1101;;;;;;;;;;;;;
1103;;;;;;;;;;;;;
1105;;;;;;;;;;;;;
1107;;;;;;;;;;;;;
1109;;;;;;;;;;;;;
1111;;;;;;;;;;;;;
1113;;;;;;;;;;;;;
1115;;;;;;;;;;;;;
1117;;;;;;;;;;;;;
1119;;;;;;;;;;;;;
1121;;;;;;;;;;;;;
1123;;;;;;;;;;;;;
1125;;;;;;;;;;;;;
1127;;;;;;;;;;;;;
1129;;;;;;;;;;;;;
1131;;;;;;;;;;;;;
1133;;;;;;;;;;;;;
1135;;;;;;;;;;;;;
1137;;;;;;;;;;;;;
1139;;;;;;;;;;;;;
1141;;;;;;;;;;;;;
1143;;;;;;;;;;;;;
1145;;;;;;;;;;;;;
1147;;;;;;;;;;;;;
1149;;;;;;;;;;;;;
1151;;;;;;;;;;;;;
1153;;;;;;;;;;;;;
1155;;;;;;;;;;;;;
1157;;;;;;;;;;;;;
1159;;;;;;;;;;;;;
1161;;;;;;;;;;;;;
1163;;;;;;;;;;;;;
1165;;;;;;;;;;;;;
1167;;;;;;;;;;;;;
1169;;;;;;;;;;;;;
1171;;;;;;;;;;;;;
1173;;;;;;;;;;;;;
1175;;;;;;;;;;;;;
1177;;;;;;;;;;;;;
1179;;;;;;;;;;;;;
1181;;;;;;;;;;;;;
1183;;;;;;;;;;;;;
1185;;;;;;;;;;;;;
1187;;;;;;;;;;;;;
1189;;;;;;;;;;;;;
1191;;;;;;;;;;;;;
1193;;;;;;;;;;;;;
1195;;;;;;;;;;;;;
1197;;;;;;;;;;;;;
1199;;;;;;;;;;;;;
1201;;;;;;;;;;;;;
1203;;;;;;;;;;;;;
1205;;;;;;;;;;;;;
1207;;;;;;;;;;;;;
1209;;;;;;;;;;;;;
1211;;;;;;;;;;;;;
1213;;;;;;;;;;;;;
1215;;;;;;;;;;;;;
1217;;;;;;;;;;;;;
1219;;;;;;;;;;;;;
1221;;;;;;;;;;;;;
1223;;;;;;;;;;;;;
1225;;;;;;;;;;;;;
1227;;;;;;;;;;;;;
1229;;;;;;;;;;;;;
1231;;;;;;;;;;;;;
1233;;;;;;;;;;;;;
1235;;;;;;;;;;;;;
1237;;;;;;;;;;;;;
1239;;;;;;;;;;;;;
1241;;;;;;;;;;;;;
1243;;;;;;;;;;;;;
1245;;;;;;;;;;;;;
1247;;;;;;;;;;;;;
1249;;;;;;;;;;;;;
1251;;;;;;;;;;;;;
1253;;;;;;;;;;;;;
1255;;;;;;;;;;;;;
1257;;;;;;;;;;;;;
1259;;;;;;;;;;;;;
1261;;;;;;;;;;;;;
1263;;;;;;;;;;;;;
1265;;;;;;;;;;;;;
1267;;;;;;;;;;;;;
1269;;;;;;;;;;;;;
1271;;;;;;;;;;;;;
1273;;;;;;;;;;;;;
1275;;;;;;;;;;;;;
1277;;;;;;;;;;;;;
1279;;;;;;;;;;;;;
1281;;;;;;;;;;;;;
1283;;;;;;;;;;;;;
1285;;;;;;;;;;;;;
1287;;;;;;;;;;;;;
1289;;;;;;;;;;;;;
1291;;;;;;;;;;;;;
1293;;;;;;;;;;;;;
1295;;;;;;;;;;;;;
1297;;;;;;;;;;;;;
1299;;;;;;;;;;;;;
1301;;;;;;;;;;;;;
1303;;;;;;;;;;;;;
1305;;;;;;;;;;;;;
1307;;;;;;;;;;;;;
1309;;;;;;;;;;;;;
1311;;;;;;;;;;;;;
1313;;;;;;;;;;;;;
1315;;;;;;;;;;;;;
1317;;;;;;;;;;;;;
1319;;;;;;;;;;;;;
1321;;;;;;;;;;;;;
1323;;;;;;;;;;;;;
1325;;;;;;;;;;;;;
1327;;;;;;;;;;;;;
1329;;;;;;;;;;;;;
1331;;;;;;;;;;;;;
1333;;;;;;;;;;;;;
1335;;;;;;;;;;;;;
1337;;;;;;;;;;;;;
1339;;;;;;;;;;;;;
1341;;;;;;;;;;;;;
1343;;;;;;;;;;;;;
1345;;;;;;;;;;;;;
1347;;;;;;;;;;;;;
1349;;;;;;;;;;;;;
1351;;;;;;;;;;;;;
1353;;;;;;;;;;;;;
1355;;;;;;;;;;;;;
1357;;;;;;;;;;;;;
1359;;;;;;;;;;;;;
1361;;;;;;;;;;;;;
1363;;;;;;;;;;;;;
1365;;;;;;;;;;;;;
1367;;;;;;;;;;;;;
1369;;;;;;;;;;;;;
1371;;;;;;;;;;;;;
1373;;;;;;;;;;;;;
1375;;;;;;;;;;;;;
1377;;;;;;;;;;;;;
1379;;;;;;;;;;;;;
1381;;;;;;;;;;;;;
1383;;;;;;;;;;;;;
1385;;;;;;;;;;;;;
1387;;;;;;;;;;;;;
1389;;;;;;;;;;;;;
1391;;;;;;;;;;;;;
1393;;;;;;;;;;;;;
1395;;;;;;;;;;;;;
1397;;;;;;;;;;;;;
1399;;;;;;;;;;;;;
1401;;;;;;;;;;;;;
1403;;;;;;;;;;;;;
1405;;;;;;;;;;;;;
1407;;;;;;;;;;;;;
1409;;;;;;;;;;;;;
1411;;;;;;;;;;;;;
1413;;;;;;;;;;;;;
1415;;;;;;;;;;;;;
1417;;;;;;;;;;;;;
1419;;;;;;;;;;;;;
1421;;;;;;;;;;;;;
1423;;;;;;;;;;;;;
1425;;;;;;;;;;;;;
1427;;;;;;;;;;;;;
1429;;;;;;;;;;;;;
1431;;;;;;;;;;;;;
1433;;;;;;;;;;;;;
1435;;;;;;;;;;;;;
1437;;;;;;;;;;;;;
1439;;;;;;;;;;;;;
1441;;;;;;;;;;;;;
1443;;;;;;;;;;;;;
1445;;;;;;;;;;;;;
1447;;;;;;;;;;;;;
1449;;;;;;;;;;;;;
1451;;;;;;;;;;;;;
1453;;;;;;;;;;;;;
1455;;;;;;;;;;;;;
1457;;;;;;;;;;;;;
1459;;;;;;;;;;;;;
1461;;;;;;;;;;;;;
1463;;;;;;;;;;;;;
1465;;;;;;;;;;;;;
1467;;;;;;;;;;;;;
1469;;;;;;;;;;;;;
1471;;;;;;;;;;;;;
1473;;;;;;;;;;;;;
1475;;;;;;;;;;;;;
1477;;;;;;;;;;;;;
1479;;;;;;;;;;;;;
1481;;;;;;;;;;;;;
1483;;;;;;;;;;;;;
1485;;;;;;;;;;;;;
1487;;;;;;;;;;;;;
1489;;;;;;;;;;;;;
1491;;;;;;;;;;;;;
1493;;;;;;;;;;;;;
1495;;;;;;;;;;;;;
1497;;;;;;;;;;;;;
1499;;;;;;;;;;;;;
1501;;;;;;;;;;;;;
1503;;;;;;;;;;;;;
1505;;;;;;;;;;;;;
1507;;;;;;;;;;;;;
1509;;;;;;;;;;;;;
1511;;;;;;;;;;;;;
1513;;;;;;;;;;;;;
1515;;;;;;;;;;;;;
1517;;;;;;;;;;;;;
1519;;;;;;;;;;;;;
1521;;;;;;;;;;;;;
1523;;;;;;;;;;;;;
1525;;;;;;;;;;;;;
1527;;;;;;;;;;;;;
1529;;;;;;;;;;;;;
1531;;;;;;;;;;;;;
1533;;;;;;;;;;;;;
1535;;;;;;;;;;;;;
1537;;;;;;;;;;;;;
1539;;;;;;;;;;;;;
1541;;;;;;;;;;;;;
1543;;;;;;;;;;;;;
1545;;;;;;;;;;;;;
1547;;;;;;;;;;;;;
1549;;;;;;;;;;;;;
1551;;;;;;;;;;;;;
1553;;;;;;;;;;;;;
1555;;;;;;;;;;;;;
1557;;;;;;;;;;;;;
1559;;;;;;;;;;;;;
1561;;;;;;;;;;;;;
1563;;;;;;;;;;;;;
1565;;;;;;;;;;;;;
1567;;;;;;;;;;;;;
1569;;;;;;;;;;;;;
1571;;;;;;;;;;;;;
1573;;;;;;;;;;;;;
1575;;;;;;;;;;;;;
1577;;;;;;;;;;;;;
1579;;;;;;;;;;;;;
1581;;;;;;;;;;;;;
1583;;;;;;;;;;;;;
1585;;;;;;;;;;;;;
1587;;;;;;;;;;;;;
1589;;;;;;;;;;;;;
1591;;;;;;;;;;;;;
1593;;;;;;;;;;;;;
1595;;;;;;;;;;;;;
1597;;;;;;;;;;;;;
1599;;;;;;;;;;;;;
1601;;;;;;;;;;;;;
1603;;;;;;;;;;;;;
1605;;;;;;;;;;;;;
1607;;;;;;;;;;;;;
1609;;;;;;;;;;;;;
1611;;;;;;;;;;;;;
1613;;;;;;;;;;;;;
1615;;;;;;;;;;;;;
1617;;;;;;;;;;;;;
1619;;;;;;;;;;;;;
1621;;;;;;;;;;;;;
1623;;;;;;;;;;;;;
1625;;;;;;;;;;;;;
1627;;;;;;;;;;;;;
1629;;;;;;;;;;;;;
1631;;;;;;;;;;;;;
1633;;;;;;;;;;;;;
1635;;;;;;;;;;;;;
1637;;;;;;;;;;;;;
1639;;;;;;;;;;;;;
1641;;;;;;;;;;;;;
1643;;;;;;;;;;;;;
1645;;;;;;;;;;;;;
1647;;;;;;;;;;;;;
1649;;;;;;;;;;;;;
1651;;;;;;;;;;;;;
1653;;;;;;;;;;;;;
1655;;;;;;;;;;;;;
1657;;;;;;;;;;;;;
1659;;;;;;;;;;;;;
1661;;;;;;;;;;;;;
1663;;;;;;;;;;;;;
1665;;;;;;;;;;;;;
1667;;;;;;;;;;;;;
1669;;;;;;;;;;;;;
1671;;;;;;;;;;;;;
1673;;;;;;;;;;;;;
1675;;;;;;;;;;;;;
1677;;;;;;;;;;;;;
1679;;;;;;;;;;;;;
1681;;;;;;;;;;;;;
1683;;;;;;;;;;;;;
1685;;;;;;;;;;;;;
1687;;;;;;;;;;;;;
1689;;;;;;;;;;;;;
1691;;;;;;;;;;;;;
1693;;;;;;;;;;;;;
1695;;;;;;;;;;;;;
1697;;;;;;;;;;;;;
1699;;;;;;;;;;;;;
1701;;;;;;;;;;;;;
1703;;;;;;;;;;;;;
1705;;;;;;;;;;;;;
1707;;;;;;;;;;;;;
1709;;;;;;;;;;;;;
1711;;;;;;;;;;;;;
1713;;;;;;;;;;;;;
1715;;;;;;;;;;;;;
1717;;;;;;;;;;;;;
1719;;;;;;;;;;;;;
1721;;;;;;;;;;;;;
1723;;;;;;;;;;;;;
1725;;;;;;;;;;;;;
1727;;;;;;;;;;;;;
1729;;;;;;;;;;;;;
1731;;;;;;;;;;;;;
1733;;;;;;;;;;;;;
1735;;;;;;;;;;;;;
1737;;;;;;;;;;;;;
1739;;;;;;;;;;;;;
1741;;;;;;;;;;;;;
1743;;;;;;;;;;;;;
1745;;;;;;;;;;;;;
1747;;;;;;;;;;;;;
1749;;;;;;;;;;;;;
1751;;;;;;;;;;;;;
1753;;;;;;;;;;;;;
1755;;;;;;;;;;;;;
1757;;;;;;;;;;;;;
1759;;;;;;;;;;;;;
1761;;;;;;;;;;;;;
1763;;;;;;;;;;;;;
1765;;;;;;;;;;;;;
1767;;;;;;;;;;;;;
1769;;;;;;;;;;;;;
1771;;;;;;;;;;;;;
1773;;;;;;;;;;;;;
1775;;;;;;;;;;;;;
1777;;;;;;;;;;;;;
1779;;;;;;;;;;;;;
1781;;;;;;;;;;;;;
1783;;;;;;;;;;;;;
1785;;;;;;;;;;;;;
1787;;;;;;;;;;;;;
1789;;;;;;;;;;;;;
1791;;;;;;;;;;;;;
1793;;;;;;;;;;;;;
1795;;;;;;;;;;;;;
1797;;;;;;;;;;;;;
1799;;;;;;;;;;;;;
1801;;;;;;;;;;;;;
1803;;;;;;;;;;;;;
1805;;;;;;;;;;;;;
1807;;;;;;;;;;;;;
1809;;;;;;;;;;;;;
1811;;;;;;;;;;;;;
1813;;;;;;;;;;;;;
1815;;;;;;;;;;;;;
1817;;;;;;;;;;;;;
1819;;;;;;;;;;;;;
1821;;;;;;;;;;;;;
1823;;;;;;;;;;;;;
1825;;;;;;;;;;;;;
1827;;;;;;;;;;;;;
1829;;;;;;;;;;;;;
1831;;;;;;;;;;;;;
1833;;;;;;;;;;;;;
1835;;;;;;;;;;;;;
1837;;;;;;;;;;;;;
1839;;;;;;;;;;;;;
1841;;;;;;;;;;;;;
1843;;;;;;;;;;;;;
1845;;;;;;;;;;;;;
1847;;;;;;;;;;;;;
1849;;;;;;;;;;;;;
1851;;;;;;;;;;;;;
1853;;;;;;;;;;;;;
1855;;;;;;;;;;;;;
1857;;;;;;;;;;;;;
1859;;;;;;;;;;;;;
1861;;;;;;;;;;;;;
1863;;;;;;;;;;;;;
1865;;;;;;;;;;;;;
1867;;;;;;;;;;;;;
1869;;;;;;;;;;;;;
1871;;;;;;;;;;;;;
1873;;;;;;;;;;;;;
1875;;;;;;;;;;;;;
1877;;;;;;;;;;;;;
1879;;;;;;;;;;;;;
1881;;;;;;;;;;;;;
1883;;;;;;;;;;;;;
1885;;;;;;;;;;;;;
1887;;;;;;;;;;;;;
1889;;;;;;;;;;;;;
1891;;;;;;;;;;;;;
1893;;;;;;;;;;;;;
1895;;;;;;;;;;;;;
1897;;;;;;;;;;;;;
1899;;;;;;;;;;;;;
1901;;;;;;;;;;;;;
1903;;;;;;;;;;;;;
1905;;;;;;;;;;;;;
1907;;;;;;;;;;;;;
1909;;;;;;;;;;;;;
1911;;;;;;;;;;;;;
1913;;;;;;;;;;;;;
1915;;;;;;;;;;;;;
1917;;;;;;;;;;;;;
1919;;;;;;;;;;;;;
1921;;;;;;;;;;;;;
1923;;;;;;;;;;;;;
1925;;;;;;;;;;;;;
1927;;;;;;;;;;;;;
1929;;;;;;;;;;;;;
1931;;;;;;;;;;;;;
1933;;;;;;;;;;;;;
1935;;;;;;;;;;;;;
1937;;;;;;;;;;;;;
1939;;;;;;;;;;;;;
1941;;;;;;;;;;;;;
1943;;;;;;;;;;;;;
1945;;;;;;;;;;;;;
1947;;;;;;;;;;;;;
1949;;;;;;;;;;;;;
1951;;;;;;;;;;;;;
1953;;;;;;;;;;;;;
1955;;;;;;;;;;;;;
1957;;;;;;;;;;;;;
1959;;;;;;;;;;;;;
1961;;;;;;;;;;;;;
1963;;;;;;;;;;;;;
1965;;;;;;;;;;;;;
1967;;;;;;;;;;;;;
1969;;;;;;;;;;;;;
1971;;;;;;;;;;;;;
1973;;;;;;;;;;;;;
1975;;;;;;;;;;;;;
1977;;;;;;;;;;;;;
1979;;;;;;;;;;;;;
1981;;;;;;;;;;;;;
1983;;;;;;;;;;;;;
1985;;;;;;;;;;;;;
1987;;;;;;;;;;;;;
1989;;;;;;;;;;;;;
1991;;;;;;;;;;;;;
1993;;;;;;;;;;;;;
1995;;;;;;;;;;;;;
1997;;;;;;;;;;;;;
1999;;;;;;;;;;;;;
2001;;;;;;;;;;;;;
2003;;;;;;;;;;;;;
2005;;;;;;;;;;;;;
2007;;;;;;;;;;;;;
2009;;;;;;;;;;;;;
2011;;;;;;;;;;;;;
2013;;;;;;;;;;;;;
2015;;;;;;;;;;;;;
2017;;;;;;;;;;;;;
2019;;;;;;;;;;;;;
2021;;;;;;;;;;;;;
2023;;;;;;;;;;;;;
2025;;;;;;;;;;;;;
2027;;;;;;;;;;;;;
2029;;;;;;;;;;;;;
2031;;;;;;;;;;;;;
2033;;;;;;;;;;;;;
2035;;;;;;;;;;;;;
2037;;;;;;;;;;;;;
2039;;;;;;;;;;;;;
2041;;;;;;;;;;;;;
2043;;;;;;;;;;;;;
2045;;;;;;;;;;;;;
2047;;;;;;;;;;;;;
2049;;;;;;;;;;;;;
2051;;;;;;;;;;;;;
2053;;;;;;;;;;;;;
2055;;;;;;;;;;;;;
2057;;;;;;;;;;;;;
2059;;;;;;;;;;;;;
2061;;;;;;;;;;;;;
2063;;;;;;;;;;;;;
2065;;;;;;;;;;;;;
2067;;;;;;;;;;;;;
2069;;;;;;;;;;;;;
2071;;;;;;;;;;;;;
2073;;;;;;;;;;;;;
2075;;;;;;;;;;;;;
2077;;;;;;;;;;;;;
2079;;;;;;;;;;;;;
2081;;;;;;;;;;;;;
2083;;;;;;;;;;;;;
2085;;;;;;;;;;;;;
2087;;;;;;;;;;;;;
2089;;;;;;;;;;;;;
2091;;;;;;;;;;;;;
2093;;;;;;;;;;;;;
2095;;;;;;;;;;;;;
2097;;;;;;;;;;;;;
2099;;;;;;;;;;;;;
2101;;;;;;;;;;;;;
2103;;;;;;;;;;;;;
2105;;;;;;;;;;;;;
2107;;;;;;;;;;;;;
2109;;;;;;;;;;;;;
2111;;;;;;;;;;;;;
2113;;;;;;;;;;;;;
2115;;;;;;;;;;;;;
2117;;;;;;;;;;;;;
2119;;;;;;;;;;;;;
2121;;;;;;;;;;;;;
2123;;;;;;;;;;;;;
2125;;;;;;;;;;;;;
2127;;;;;;;;;;;;;
2129;;;;;;;;;;;;;
2131;;;;;;;;;;;;;
2133;;;;;;;;;;;;;
2135;;;;;;;;;;;;;
2137;;;;;;;;;;;;;
2139;;;;;;;;;;;;;
2141;;;;;;;;;;;;;
2143;;;;;;;;;;;;;
2145;;;;;;;;;;;;;
2147;;;;;;;;;;;;;
2149;;;;;;;;;;;;;
2151;;;;;;;;;;;;;
2153;;;;;;;;;;;;;
2155;;;;;;;;;;;;;
2157;;;;;;;;;;;;;
2159;;;;;;;;;;;;;
2161;;;;;;;;;;;;;
2163;;;;;;;;;;;;;
2165;;;;;;;;;;;;;
2167;;;;;;;;;;;;;
2169;;;;;;;;;;;;;
2171;;;;;;;;;;;;;
2173;;;;;;;;;;;;;
2175;;;;;;;;;;;;;
2177;;;;;;;;;;;;;
2179;;;;;;;;;;;;;
2181;;;;;;;;;;;;;
2183;;;;;;;;;;;;;
2185;;;;;;;;;;;;;
2187;;;;;;;;;;;;;
2189;;;;;;;;;;;;;
2191;;;;;;;;;;;;;
2193;;;;;;;;;;;;;
2195;;;;;;;;;;;;;
2197;;;;;;;;;;;;;
2199;;;;;;;;;;;;;
2201;;;;;;;;;;;;;
2203;;;;;;;;;;;;;
2205;;;;;;;;;;;;;
2207;;;;;;;;;;;;;
2209;;;;;;;;;;;;;
2211;;;;;;;;;;;;;
2213;;;;;;;;;;;;;
2215;;;;;;;;;;;;;
2217;;;;;;;;;;;;;
2219;;;;;;;;;;;;;
2221;;;;;;;;;;;;;
2223;;;;;;;;;;;;;
2225;;;;;;;;;;;;;
2227;;;;;;;;;;;;;
2229;;;;;;;;;;;;;
2231;;;;;;;;;;;;;
2233;;;;;;;;;;;;;
2235;;;;;;;;;;;;;
2237;;;;;;;;;;;;;
2239;;;;;;;;;;;;;
2241;;;;;;;;;;;;;
2243;;;;;;;;;;;;;
2245;;;;;;;;;;;;;
2247;;;;;;;;;;;;;
2249;;;;;;;;;;;;;
2251;;;;;;;;;;;;;
2253;;;;;;;;;;;;;
2255;;;;;;;;;;;;;
2257;;;;;;;;;;;;;
2259;;;;;;;;;;;;;
2261;;;;;;;;;;;;;
2263;;;;;;;;;;;;;
2265;;;;;;;;;;;;;
2267;;;;;;;;;;;;;
2269;;;;;;;;;;;;;
2271;;;;;;;;;;;;;
2273;;;;;;;;;;;;;
2275;;;;;;;;;;;;;
2277;;;;;;;;;;;;;
2279;;;;;;;;;;;;;
2281;;;;;;;;;;;;;
2283;;;;;;;;;;;;;
2285;;;;;;;;;;;;;
2287;;;;;;;;;;;;;
2289;;;;;;;;;;;;;
2291;;;;;;;;;;;;;
2293;;;;;;;;;;;;;
2295;;;;;;;;;;;;;
2297;;;;;;;;;;;;;
2299;;;;;;;;;;;;;
2301;;;;;;;;;;;;;
2303;;;;;;;;;;;;;
2305;;;;;;;;;;;;;
2307;;;;;;;;;;;;;
2309;;;;;;;;;;;;;
2311;;;;;;;;;;;;;
2313;;;;;;;;;;;;;
2315;;;;;;;;;;;;;
2317;;;;;;;;;;;;;
2319;;;;;;;;;;;;;
2321;;;;;;;;;;;;;
2323;;;;;;;;;;;;;
2325;;;;;;;;;;;;;
2327;;;;;;;;;;;;;
2329;;;;;;;;;;;;;
2331;;;;;;;;;;;;;
2333;;;;;;;;;;;;;
2335;;;;;;;;;;;;;
2337;;;;;;;;;;;;;
2339;;;;;;;;;;;;;
2341;;;;;;;;;;;;;
2343;;;;;;;;;;;;;
2345;;;;;;;;;;;;;
2347;;;;;;;;;;;;;
2349;;;;;;;;;;;;;
2351;;;;;;;;;;;;;
2353;;;;;;;;;;;;;
2355;;;;;;;;;;;;;
2357;;;;;;;;;;;;;
2359;;;;;;;;;;;;;
2361;;;;;;;;;;;;;
2363;;;;;;;;;;;;;
2365;;;;;;;;;;;;;
2367;;;;;;;;;;;;;
2369;;;;;;;;;;;;;
2371;;;;;;;;;;;;;
2373;;;;;;;;;;;;;
2375;;;;;;;;;;;;;
2377;;;;;;;;;;;;;
2379;;;;;;;;;;;;;
2381;;;;;;;;;;;;;
2383;;;;;;;;;;;;;
2385;;;;;;;;;;;;;
2387;;;;;;;;;;;;;
2389;;;;;;;;;;;;;
2391;;;;;;;;;;;;;
2393;;;;;;;;;;;;;
2395;;;;;;;;;;;;;
2397;;;;;;;;;;;;;
2399;;;;;;;;;;;;;
2401;;;;;;;;;;;;;
2403;;;;;;;;;;;;;
2405;;;;;;;;;;;;;
2407;;;;;;;;;;;;;
2409;;;;;;;;;;;;;
2411;;;;;;;;;;;;;
2413;;;;;;;;;;;;;
2415;;;;;;;;;;;;;
2417;;;;;;;;;;;;;
2419;;;;;;;;;;;;;
2421;;;;;;;;;;;;;
2423;;;;;;;;;;;;;
2425;;;;;;;;;;;;;
2427;;;;;;;;;;;;;
2429;;;;;;;;;;;;;
2431;;;;;;;;;;;;;
2433;;;;;;;;;;;;;
2435;;;;;;;;;;;;;
2437;;;;;;;;;;;;;
2439;;;;;;;;;;;;;
2441;;;;;;;;;;;;;
2443;;;;;;;;;;;;;
2445;;;;;;;;;;;;;
2447;;;;;;;;;;;;;
2449;;;;;;;;;;;;;
2451;;;;;;;;;;;;;
2453;;;;;;;;;;;;;
2455;;;;;;;;;;;;;
2457;;;;;;;;;;;;;
2459;;;;;;;;;;;;;
2461;;;;;;;;;;;;;
2463;;;;;;;;;;;;;
2465;;;;;;;;;;;;;
2467;;;;;;;;;;;;;
2469;;;;;;;;;;;;;
2471;;;;;;;;;;;;;
2473;;;;;;;;;;;;;
2475;;;;;;;;;;;;;
2477;;;;;;;;;;;;;
2479;;;;;;;;;;;;;
2481;;;;;;;;;;;;;
2483;;;;;;;;;;;;;
2485;;;;;;;;;;;;;
2487;;;;;;;;;;;;;
2489;;;;;;;;;;;;;
2491;;;;;;;;;;;;;
2493;;;;;;;;;;;;;
2495;;;;;;;;;;;;;
2497;;;;;;;;;;;;;
2499;;;;;;;;;;;;;
2501;;;;;;;;;;;;;
2503;;;;;;;;;;;;;
2505;;;;;;;;;;;;;
2507;;;;;;;;;;;;;
2509;;;;;;;;;;;;;
2511;;;;;;;;;;;;;
2513;;;;;;;;;;;;;
2515;;;;;;;;;;;;;
2517;;;;;;;;;;;;;
2519;;;;;;;;;;;;;
2521;;;;;;;;;;;;;
2523;;;;;;;;;;;;;
2525;;;;;;;;;;;;;
2527;;;;;;;;;;;;;
2529;;;;;;;;;;;;;
2531;;;;;;;;;;;;;
2533;;;;;;;;;;;;;
2535;;;;;;;;;;;;;
2536;;;;;;;;;;;;;