File: carbon_superP/O2_0500rpm.txt
Index;Column 2 (V);Column 3 (V);Column 4 (V);Column 5 (V);Column 6 (V/s);Column 7 (V);Time (s);Potential applied (V);WE(1).Current (A);WE(1).Potential (V);Scan;Column 13 (RPM);ω (rad/s)
1;0.1;0.11;-0.9;-0.01;0.01;-0.00244;7479.38;-0.014801;-8.17871e-07;-0.0144714;3;500;52.3599
3;;;;;;;7479.87;-0.0196838;-1.51123e-06;-0.0193329;3;;
5;;;;;;;7480.35;-0.0245667;-2.6062e-06;-0.0242249;3;;
7;;;;;;;7480.84;-0.0294495;-4.34387e-06;-0.0291077;3;;
9;;;;;;;7481.33;-0.0343323;-7.03125E-06;-0.0339844;3;;
11;;;;;;;7481.82;-0.0392151;-1.11145e-05;-0.0388397;3;;
13;;;;;;;7482.31;-0.0440979;-1.71722e-05;-0.0437195;3;;
15;;;;;;;7482.8;-0.0489807;-2.57751e-05;-0.0485748;3;;
17;;;;;;;7483.28;-0.0538635;-3.75793e-05;-0.0536194;3;;
19;;;;;;;7483.77;-0.0587463;-5.3009e-05;-0.0584106;3;;
21;;;;;;;7484.26;-0.0636292;-7.22656e-05;-0.0632629;3;;
23;;;;;;;7484.75;-0.068512;-9.54285e-05;-0.0680847;3;;
25;;;;;;;7485.24;-0.0733948;-0.000122162;-0.0729065;3;;
27;;;;;;;7485.73;-0.0782776;-0.000152069;-0.0777588;3;;
29;;;;;;;7486.21;-0.0831604;-0.000184509;-0.0826111;3;;
31;;;;;;;7486.7;-0.0880432;-0.000218903;-0.0874023;3;;
33;;;;;;;7487.19;-0.092926;-0.000254578;-0.0923157;3;;
35;;;;;;;7487.68;-0.0978088;-0.000290771;-0.0970459;3;;
37;;;;;;;7488.17;-0.102692;-0.00032663;-0.102325;3;;
39;;;;;;;7488.65;-0.107574;-0.000361145;-0.107178;3;;
41;;;;;;;7489.14;-0.112457;-0.000393311;-0.111969;3;;
43;;;;;;;7489.63;-0.11734;-0.0004216;-0.116913;3;;
45;;;;;;;7490.12;-0.122223;-0.000445068;-0.121796;3;;
47;;;;;;;7490.61;-0.127106;-0.000462097;-0.126617;3;;
49;;;;;;;7491.1;-0.131989;-0.000471436;-0.13147;3;;
51;;;;;;;7491.58;-0.136871;-0.000472992;-0.136383;3;;
53;;;;;;;7492.07;-0.141754;-0.000468292;-0.141235;3;;
55;;;;;;;7492.56;-0.146637;-0.00046286;-0.146118;3;;
57;;;;;;;7493.05;-0.15152;-0.000460846;-0.151001;3;;
59;;;;;;;7493.54;-0.156403;-0.000462311;-0.155945;3;;
61;;;;;;;7494.03;-0.161285;-0.000465729;-0.160736;3;;
63;;;;;;;7494.51;-0.166168;-0.000469391;-0.165588;3;;
65;;;;;;;7495;-0.171051;-0.000473541;-0.170502;3;;
67;;;;;;;7495.49;-0.175934;-0.000477295;-0.175385;3;;
69;;;;;;;7495.98;-0.180817;-0.000480713;-0.180237;3;;
71;;;;;;;7496.47;-0.185699;-0.000484528;-0.18512;3;;
73;;;;;;;7496.96;-0.190582;-0.000487518;-0.190033;3;;
75;;;;;;;7497.44;-0.195465;-0.000490448;-0.194885;3;;
77;;;;;;;7497.93;-0.200348;-0.000493347;-0.199738;3;;
79;;;;;;;7498.42;-0.205231;-0.000496246;-0.20459;3;;
81;;;;;;;7498.91;-0.210114;-0.000498444;-0.209503;3;;
83;;;;;;;7499.4;-0.214996;-0.000500793;-0.214355;3;;
85;;;;;;;7499.89;-0.219879;-0.000502625;-0.219269;3;;
87;;;;;;;7500.37;-0.224762;-0.000504456;-0.224152;3;;
89;;;;;;;7500.86;-0.229645;-0.000506287;-0.228943;3;;
91;;;;;;;7501.35;-0.234528;-0.000508118;-0.233887;3;;
93;;;;;;;7501.84;-0.23941;-0.000509033;-0.23877;3;;
95;;;;;;;7502.33;-0.244293;-0.000510559;-0.243591;3;;
97;;;;;;;7502.81;-0.249176;-0.00051178;-0.248505;3;;
99;;;;;;;7503.3;-0.254059;-0.000513;-0.253326;3;;
101;;;;;;;7503.79;-0.258942;-0.000514526;-0.25827;3;;
103;;;;;;;7504.28;-0.263824;-0.000515747;-0.263062;3;;
105;;;;;;;7504.77;-0.268707;-0.000516663;-0.267944;3;;
107;;;;;;;7505.26;-0.27359;-0.000517273;-0.272797;3;;
109;;;;;;;7505.74;-0.278473;-0.000518188;-0.27771;3;;
111;;;;;;;7506.23;-0.283356;-0.000518799;-0.282562;3;;
113;;;;;;;7506.72;-0.288239;-0.000519714;-0.287537;3;;
115;;;;;;;7507.21;-0.293121;-0.000520325;-0.292358;3;;
117;;;;;;;7507.7;-0.298004;-0.00052124;-0.297241;3;;
119;;;;;;;7508.19;-0.302887;-0.000520935;-0.302094;3;;
121;;;;;;;7508.67;-0.30777;-0.000520935;-0.306976;3;;
123;;;;;;;7509.16;-0.312653;-0.000522766;-0.311859;3;;
125;;;;;;;7509.65;-0.317535;-0.000524292;-0.316711;3;;
127;;;;;;;7510.14;-0.322418;-0.000523682;-0.321594;3;;
129;;;;;;;7510.63;-0.327301;-0.000524597;-0.326508;3;;
131;;;;;;;7511.12;-0.332184;-0.000525208;-0.33139;3;;
133;;;;;;;7511.6;-0.337067;-0.000525818;-0.336243;3;;
135;;;;;;;7512.09;-0.341949;-0.000526428;-0.341064;3;;
137;;;;;;;7512.58;-0.346832;-0.000527039;-0.345947;3;;
139;;;;;;;7513.07;-0.351715;-0.000527649;-0.350861;3;;
141;;;;;;;7513.56;-0.356598;-0.000527954;-0.355713;3;;
143;;;;;;;7514.05;-0.361481;-0.000528259;-0.360596;3;;
145;;;;;;;7514.53;-0.366364;-0.000528564;-0.365448;3;;
147;;;;;;;7515.02;-0.371246;-0.000528259;-0.370331;3;;
149;;;;;;;7515.51;-0.376129;-0.00052887;-0.375244;3;;
151;;;;;;;7516;-0.381012;-0.000528564;-0.380127;3;;
153;;;;;;;7516.49;-0.385895;-0.00052887;-0.38504;3;;
155;;;;;;;7516.98;-0.390778;-0.00052948;-0.389893;3;;
157;;;;;;;7517.46;-0.39566;-0.000530396;-0.394745;3;;
159;;;;;;;7517.95;-0.400543;-0.000530701;-0.399597;3;;
161;;;;;;;7518.44;-0.405426;-0.000530701;-0.40451;3;;
163;;;;;;;7518.93;-0.410309;-0.000531006;-0.409424;3;;
165;;;;;;;7519.42;-0.415192;-0.000531616;-0.414246;3;;
167;;;;;;;7519.9;-0.420074;-0.000531921;-0.419098;3;;
169;;;;;;;7520.39;-0.424957;-0.000532227;-0.424042;3;;
171;;;;;;;7520.88;-0.42984;-0.000532532;-0.428833;3;;
173;;;;;;;7521.37;-0.434723;-0.000532227;-0.433746;3;;
175;;;;;;;7521.86;-0.439606;-0.000532837;-0.438568;3;;
177;;;;;;;7522.35;-0.444489;-0.000533447;-0.44342;3;;
179;;;;;;;7522.83;-0.449371;-0.000533447;-0.448303;3;;
181;;;;;;;7523.32;-0.454254;-0.000533447;-0.453217;3;;
183;;;;;;;7523.81;-0.459137;-0.000533447;-0.458099;3;;
185;;;;;;;7524.3;-0.46402;-0.000533752;-0.462982;3;;
187;;;;;;;7524.79;-0.468903;-0.000534363;-0.467804;3;;
189;;;;;;;7525.28;-0.473785;-0.000534973;-0.472778;3;;
191;;;;;;;7525.76;-0.478668;-0.000535583;-0.477631;3;;
193;;;;;;;7526.25;-0.483551;-0.000535278;-0.482452;3;;
195;;;;;;;7526.74;-0.488434;-0.000536194;-0.487305;3;;
197;;;;;;;7527.23;-0.493317;-0.000536499;-0.492218;3;;
199;;;;;;;7527.72;-0.498199;-0.000536804;-0.49704;3;;
201;;;;;;;7528.21;-0.503082;-0.000537415;-0.501953;3;;
203;;;;;;;7528.69;-0.507965;-0.000536804;-0.506805;3;;
205;;;;;;;7529.18;-0.512848;-0.000537109;-0.511658;3;;
207;;;;;;;7529.67;-0.517731;-0.000537415;-0.516632;3;;
209;;;;;;;7530.16;-0.522614;-0.000538635;-0.521454;3;;
211;;;;;;;7530.65;-0.527496;-0.00053833;-0.526306;3;;
213;;;;;;;7531.14;-0.532379;-0.000540161;-0.531219;3;;
215;;;;;;;7531.62;-0.537262;-0.000540161;-0.536102;3;;
217;;;;;;;7532.11;-0.542145;-0.000541077;-0.541016;3;;
219;;;;;;;7532.6;-0.547028;-0.000541382;-0.545868;3;;
221;;;;;;;7533.09;-0.55191;-0.000541687;-0.550751;3;;
223;;;;;;;7533.58;-0.556793;-0.000542603;-0.555573;3;;
225;;;;;;;7534.07;-0.561676;-0.000541992;-0.560486;3;;
227;;;;;;;7534.55;-0.566559;-0.000544128;-0.565338;3;;
229;;;;;;;7535.04;-0.571442;-0.000544434;-0.57019;3;;
231;;;;;;;7535.53;-0.576324;-0.000545044;-0.575043;3;;
233;;;;;;;7536.02;-0.581207;-0.000545044;-0.580048;3;;
235;;;;;;;7536.51;-0.58609;-0.000545654;-0.584808;3;;
237;;;;;;;7536.99;-0.590973;-0.000546875;-0.589752;3;;
239;;;;;;;7537.48;-0.595856;-0.000547791;-0.594604;3;;
241;;;;;;;7537.97;-0.600739;-0.000547485;-0.599426;3;;
243;;;;;;;7538.46;-0.605621;-0.000549011;-0.604309;3;;
245;;;;;;;7538.95;-0.610504;-0.000549927;-0.609192;3;;
247;;;;;;;7539.44;-0.615387;-0.000549927;-0.614075;3;;
249;;;;;;;7539.92;-0.62027;-0.000550842;-0.618927;3;;
251;;;;;;;7540.41;-0.625153;-0.000551758;-0.62384;3;;
253;;;;;;;7540.9;-0.630035;-0.000552368;-0.628754;3;;
255;;;;;;;7541.39;-0.634918;-0.000552673;-0.633575;3;;
257;;;;;;;7541.88;-0.639801;-0.000553284;-0.638458;3;;
259;;;;;;;7542.37;-0.644684;-0.000553894;-0.643372;3;;
261;;;;;;;7542.85;-0.649567;-0.000553589;-0.648254;3;;
263;;;;;;;7543.34;-0.654449;-0.000553589;-0.653137;3;;
265;;;;;;;7543.83;-0.659332;-0.000554504;-0.65799;3;;
267;;;;;;;7544.32;-0.664215;-0.00055603;-0.662872;3;;
269;;;;;;;7544.81;-0.669098;-0.000556641;-0.667786;3;;
271;;;;;;;7545.3;-0.673981;-0.000556946;-0.672607;3;;
273;;;;;;;7545.78;-0.678864;-0.00055603;-0.677521;3;;
275;;;;;;;7546.27;-0.683746;-0.000555725;-0.682404;3;;
277;;;;;;;7546.76;-0.688629;-0.000556335;-0.687256;3;;
279;;;;;;;7547.25;-0.693512;-0.000556946;-0.692139;3;;
281;;;;;;;7547.74;-0.698395;-0.000557251;-0.697021;3;;
283;;;;;;;7548.23;-0.703278;-0.000557251;-0.701935;3;;
285;;;;;;;7548.71;-0.70816;-0.000557251;-0.706787;3;;
287;;;;;;;7549.2;-0.713043;-0.000557556;-0.7117;3;;
289;;;;;;;7549.69;-0.717926;-0.000557251;-0.716553;3;;
291;;;;;;;7550.18;-0.722809;-0.000557251;-0.721436;3;;
293;;;;;;;7550.67;-0.727692;-0.000558777;-0.726349;3;;
295;;;;;;;7551.15;-0.732574;-0.000557861;-0.731232;3;;
297;;;;;;;7551.64;-0.737457;-0.000556946;-0.736115;3;;
299;;;;;;;7552.13;-0.74234;-0.000557556;-0.740967;3;;
301;;;;;;;7552.62;-0.747223;-0.000557556;-0.74585;3;;
303;;;;;;;7553.11;-0.752106;-0.000557251;-0.751343;3;;
305;;;;;;;7553.6;-0.756989;-0.000557556;-0.756226;3;;
307;;;;;;;7554.08;-0.761871;-0.000557861;-0.761108;3;;
309;;;;;;;7554.57;-0.766754;-0.000558167;-0.765686;3;;
311;;;;;;;7555.06;-0.771637;-0.000556946;-0.770569;3;;
313;;;;;;;7555.55;-0.77652;-0.000556946;-0.775452;3;;
315;;;;;;;7556.04;-0.781403;-0.000556335;-0.780029;3;;
317;;;;;;;7556.53;-0.786285;-0.00055603;-0.785522;3;;
319;;;;;;;7557.01;-0.791168;-0.00055542;-0.789795;3;;
321;;;;;;;7557.5;-0.796051;-0.00055603;-0.795288;3;;
323;;;;;;;7557.99;-0.800934;-0.000555725;-0.800171;3;;
325;;;;;;;7558.48;-0.805817;-0.00055542;-0.804749;3;;
327;;;;;;;7558.97;-0.810699;-0.000555115;-0.809937;3;;
329;;;;;;;7559.46;-0.815582;-0.000554199;-0.814819;3;;
331;;;;;;;7559.94;-0.820465;-0.000554199;-0.819702;3;;
333;;;;;;;7560.43;-0.825348;-0.000553589;-0.825195;3;;
335;;;;;;;7560.92;-0.830231;-0.000552368;-0.829468;3;;
337;;;;;;;7561.41;-0.835114;-0.000551758;-0.834351;3;;
339;;;;;;;7561.9;-0.839996;-0.000551147;-0.838928;3;;
341;;;;;;;7562.39;-0.844879;-0.000551147;-0.843506;3;;
343;;;;;;;7562.87;-0.849762;-0.000550842;-0.848999;3;;
345;;;;;;;7563.36;-0.854645;-0.000549316;-0.853882;3;;
347;;;;;;;7563.85;-0.859528;-0.000548706;-0.858459;3;;
349;;;;;;;7564.34;-0.86441;-0.000547791;-0.863647;3;;
351;;;;;;;7564.83;-0.869293;-0.000546875;-0.868835;3;;
353;;;;;;;7565.32;-0.874176;-0.000546265;-0.873413;3;;
355;;;;;;;7565.8;-0.879059;-0.000545654;-0.877991;3;;
357;;;;;;;7566.29;-0.883942;-0.000544739;-0.882874;3;;
359;;;;;;;7566.78;-0.888824;-0.000544434;-0.887756;3;;
361;;;;;;;7567.27;-0.893707;-0.000544128;-0.892944;3;;
363;;;;;;;7567.76;-0.89859;-0.000543213;-0.897522;3;;
365;;;;;;;7568.24;-0.89859;-0.000541382;-0.898132;3;;
367;;;;;;;7568.73;-0.893707;-0.000540161;-0.892944;3;;
369;;;;;;;7569.22;-0.888824;-0.000539856;-0.887756;3;;
371;;;;;;;7569.71;-0.883942;-0.000540161;-0.883179;3;;
373;;;;;;;7570.2;-0.879059;-0.000540466;-0.877991;3;;
375;;;;;;;7570.69;-0.874176;-0.000539551;-0.872803;3;;
377;;;;;;;7571.17;-0.869293;-0.000541077;-0.868225;3;;
379;;;;;;;7571.66;-0.86441;-0.000541382;-0.863037;3;;
381;;;;;;;7572.15;-0.859528;-0.000541992;-0.858765;3;;
383;;;;;;;7572.64;-0.854645;-0.000541382;-0.853577;3;;
385;;;;;;;7573.13;-0.849762;-0.000542908;-0.848999;3;;
387;;;;;;;7573.62;-0.844879;-0.000543518;-0.843811;3;;
389;;;;;;;7574.1;-0.839996;-0.000544128;-0.838928;3;;
391;;;;;;;7574.59;-0.835114;-0.000544739;-0.834351;3;;
393;;;;;;;7575.08;-0.830231;-0.000545654;-0.829468;3;;
395;;;;;;;7575.57;-0.825348;-0.000546265;-0.824585;3;;
397;;;;;;;7576.06;-0.820465;-0.00054657;-0.820007;3;;
399;;;;;;;7576.55;-0.815582;-0.00054657;-0.814819;3;;
401;;;;;;;7577.03;-0.810699;-0.00054657;-0.809631;3;;
403;;;;;;;7577.52;-0.805817;-0.00054718;-0.805054;3;;
405;;;;;;;7578.01;-0.800934;-0.00054718;-0.799866;3;;
407;;;;;;;7578.5;-0.796051;-0.000547791;-0.795288;3;;
409;;;;;;;7578.99;-0.791168;-0.000548401;-0.790405;3;;
411;;;;;;;7579.48;-0.786285;-0.000548706;-0.785217;3;;
413;;;;;;;7579.96;-0.781403;-0.000548401;-0.780334;3;;
415;;;;;;;7580.45;-0.77652;-0.000548401;-0.775757;3;;
417;;;;;;;7580.94;-0.771637;-0.000549011;-0.770874;3;;
419;;;;;;;7581.43;-0.766754;-0.000549011;-0.765991;3;;
421;;;;;;;7581.92;-0.761871;-0.000549011;-0.761108;3;;
423;;;;;;;7582.4;-0.756989;-0.000549622;-0.756531;3;;
425;;;;;;;7582.89;-0.752106;-0.000549927;-0.751343;3;;
427;;;;;;;7583.38;-0.747223;-0.000549622;-0.745789;3;;
429;;;;;;;7583.87;-0.74234;-0.000549316;-0.740997;3;;
431;;;;;;;7584.36;-0.737457;-0.000549622;-0.736023;3;;
433;;;;;;;7584.85;-0.732574;-0.000549622;-0.731232;3;;
435;;;;;;;7585.33;-0.727692;-0.000549316;-0.726349;3;;
437;;;;;;;7585.82;-0.722809;-0.000549622;-0.721497;3;;
439;;;;;;;7586.31;-0.717926;-0.000549622;-0.716583;3;;
441;;;;;;;7586.8;-0.713043;-0.000549316;-0.7117;3;;
443;;;;;;;7587.29;-0.70816;-0.000548706;-0.706787;3;;
445;;;;;;;7587.78;-0.703278;-0.000548706;-0.701904;3;;
447;;;;;;;7588.26;-0.698395;-0.000548706;-0.697052;3;;
449;;;;;;;7588.75;-0.693512;-0.000548401;-0.692169;3;;
451;;;;;;;7589.24;-0.688629;-0.000548096;-0.687286;3;;
453;;;;;;;7589.73;-0.683746;-0.000547791;-0.682434;3;;
455;;;;;;;7590.22;-0.678864;-0.00054718;-0.67749;3;;
457;;;;;;;7590.71;-0.673981;-0.000546875;-0.672607;3;;
459;;;;;;;7591.19;-0.669098;-0.00054657;-0.667725;3;;
461;;;;;;;7591.68;-0.664215;-0.000545959;-0.662842;3;;
463;;;;;;;7592.17;-0.659332;-0.000545654;-0.657959;3;;
465;;;;;;;7592.66;-0.654449;-0.000545349;-0.653107;3;;
467;;;;;;;7593.15;-0.649567;-0.000544739;-0.648224;3;;
469;;;;;;;7593.64;-0.644684;-0.000543823;-0.643402;3;;
471;;;;;;;7594.12;-0.639801;-0.000543823;-0.638458;3;;
473;;;;;;;7594.61;-0.634918;-0.000543213;-0.633636;3;;
475;;;;;;;7595.1;-0.630035;-0.000542603;-0.628723;3;;
477;;;;;;;7595.59;-0.625153;-0.000542297;-0.62381;3;;
479;;;;;;;7596.08;-0.62027;-0.000541992;-0.618958;3;;
481;;;;;;;7596.57;-0.615387;-0.000541992;-0.614075;3;;
483;;;;;;;7597.05;-0.610504;-0.000541077;-0.609161;3;;
485;;;;;;;7597.54;-0.605621;-0.000540771;-0.60434;3;;
487;;;;;;;7598.03;-0.600739;-0.000539856;-0.599426;3;;
489;;;;;;;7598.52;-0.595856;-0.000539856;-0.594604;3;;
491;;;;;;;7599.01;-0.590973;-0.00053894;-0.589722;3;;
493;;;;;;;7599.49;-0.58609;-0.00053833;-0.584778;3;;
495;;;;;;;7599.98;-0.581207;-0.00053833;-0.580017;3;;
497;;;;;;;7600.47;-0.576324;-0.00053772;-0.575134;3;;
499;;;;;;;7600.96;-0.571442;-0.000535889;-0.570221;3;;
501;;;;;;;7601.45;-0.566559;-0.000535889;-0.565338;3;;
503;;;;;;;7601.94;-0.561676;-0.000534973;-0.560516;3;;
505;;;;;;;7602.42;-0.556793;-0.000534363;-0.555573;3;;
507;;;;;;;7602.91;-0.55191;-0.000534668;-0.55072;3;;
509;;;;;;;7603.4;-0.547028;-0.000534058;-0.545837;3;;
511;;;;;;;7603.89;-0.542145;-0.000533142;-0.540924;3;;
513;;;;;;;7604.38;-0.537262;-0.000532532;-0.536041;3;;
515;;;;;;;7604.87;-0.532379;-0.000531921;-0.531189;3;;
517;;;;;;;7605.35;-0.527496;-0.000531006;-0.526337;3;;
519;;;;;;;7605.84;-0.522614;-0.000531311;-0.521454;3;;
521;;;;;;;7606.33;-0.517731;-0.000531006;-0.516571;3;;
523;;;;;;;7606.82;-0.512848;-0.000531311;-0.511719;3;;
525;;;;;;;7607.31;-0.507965;-0.00053009;-0.506836;3;;
527;;;;;;;7607.8;-0.503082;-0.000529175;-0.501953;3;;
529;;;;;;;7608.28;-0.498199;-0.000529175;-0.497101;3;;
531;;;;;;;7608.77;-0.493317;-0.00052948;-0.492218;3;;
533;;;;;;;7609.26;-0.488434;-0.000528564;-0.487335;3;;
535;;;;;;;7609.75;-0.483551;-0.000528564;-0.482513;3;;
537;;;;;;;7610.24;-0.478668;-0.000528259;-0.477631;3;;
539;;;;;;;7610.73;-0.473785;-0.000527649;-0.472748;3;;
541;;;;;;;7611.21;-0.468903;-0.000527039;-0.467865;3;;
543;;;;;;;7611.7;-0.46402;-0.000527344;-0.462952;3;;
545;;;;;;;7612.19;-0.459137;-0.000525818;-0.458099;3;;
547;;;;;;;7612.68;-0.454254;-0.000525818;-0.453217;3;;
549;;;;;;;7613.17;-0.449371;-0.000526123;-0.448273;3;;
551;;;;;;;7613.66;-0.444489;-0.000526428;-0.44342;3;;
553;;;;;;;7614.14;-0.439606;-0.000525818;-0.438568;3;;
555;;;;;;;7614.63;-0.434723;-0.000525818;-0.433685;3;;
557;;;;;;;7615.12;-0.42984;-0.000525818;-0.428864;3;;
559;;;;;;;7615.61;-0.424957;-0.000525818;-0.423981;3;;
561;;;;;;;7616.1;-0.420074;-0.000525208;-0.419098;3;;
563;;;;;;;7616.58;-0.415192;-0.000524902;-0.414246;3;;
565;;;;;;;7617.07;-0.410309;-0.000524597;-0.409363;3;;
567;;;;;;;7617.56;-0.405426;-0.000524597;-0.40451;3;;
569;;;;;;;7618.05;-0.400543;-0.000524597;-0.399628;3;;
571;;;;;;;7618.54;-0.39566;-0.000523987;-0.394745;3;;
573;;;;;;;7619.03;-0.390778;-0.000522766;-0.389862;3;;
575;;;;;;;7619.51;-0.385895;-0.000522766;-0.384979;3;;
577;;;;;;;7620;-0.381012;-0.000522461;-0.380096;3;;
579;;;;;;;7620.49;-0.376129;-0.000522156;-0.375244;3;;
581;;;;;;;7620.98;-0.371246;-0.000521851;-0.370331;3;;
583;;;;;;;7621.47;-0.366364;-0.000521851;-0.365479;3;;
585;;;;;;;7621.96;-0.361481;-0.000521545;-0.360596;3;;
587;;;;;;;7622.44;-0.356598;-0.000520935;-0.355713;3;;
589;;;;;;;7622.93;-0.351715;-0.000520935;-0.350861;3;;
591;;;;;;;7623.42;-0.346832;-0.000520325;-0.345978;3;;
593;;;;;;;7623.91;-0.341949;-0.000520325;-0.341125;3;;
595;;;;;;;7624.4;-0.337067;-0.000519714;-0.336182;3;;
597;;;;;;;7624.89;-0.332184;-0.000518799;-0.33136;3;;
599;;;;;;;7625.37;-0.327301;-0.000518494;-0.326447;3;;
601;;;;;;;7625.86;-0.322418;-0.000518188;-0.321655;3;;
603;;;;;;;7626.35;-0.317535;-0.000517273;-0.316742;3;;
605;;;;;;;7626.84;-0.312653;-0.000516968;-0.311859;3;;
607;;;;;;;7627.33;-0.30777;-0.000516357;-0.306946;3;;
609;;;;;;;7627.82;-0.302887;-0.000515747;-0.302063;3;;
611;;;;;;;7628.3;-0.298004;-0.000515442;-0.297211;3;;
613;;;;;;;7628.79;-0.293121;-0.000515137;-0.292358;3;;
615;;;;;;;7629.28;-0.288239;-0.000513916;-0.287445;3;;
617;;;;;;;7629.77;-0.283356;-0.000513916;-0.282532;3;;
619;;;;;;;7630.26;-0.278473;-0.000513611;-0.27774;3;;
621;;;;;;;7630.74;-0.27359;-0.000512695;-0.272858;3;;
623;;;;;;;7631.23;-0.268707;-0.00051178;-0.267975;3;;
625;;;;;;;7631.72;-0.263824;-0.000510559;-0.263123;3;;
627;;;;;;;7632.21;-0.258942;-0.000509949;-0.258301;3;;
629;;;;;;;7632.7;-0.254059;-0.000508118;-0.253387;3;;
631;;;;;;;7633.19;-0.249176;-0.000506897;-0.248505;3;;
633;;;;;;;7633.67;-0.244293;-0.000505981;-0.243652;3;;
635;;;;;;;7634.16;-0.23941;-0.00050415;-0.23877;3;;
637;;;;;;;7634.65;-0.234528;-0.000502625;-0.233917;3;;
639;;;;;;;7635.14;-0.229645;-0.000500793;-0.229004;3;;
641;;;;;;;7635.63;-0.224762;-0.000499664;-0.224121;3;;
643;;;;;;;7636.12;-0.219879;-0.000498749;-0.219208;3;;
645;;;;;;;7636.6;-0.214996;-0.000496979;-0.214355;3;;
647;;;;;;;7637.09;-0.210114;-0.000494171;-0.209442;3;;
649;;;;;;;7637.58;-0.205231;-0.000492432;-0.20459;3;;
651;;;;;;;7638.07;-0.200348;-0.000489471;-0.199738;3;;
653;;;;;;;7638.56;-0.195465;-0.000486877;-0.194885;3;;
655;;;;;;;7639.05;-0.190582;-0.000483856;-0.189972;3;;
657;;;;;;;7639.53;-0.185699;-0.000480255;-0.18512;3;;
659;;;;;;;7640.02;-0.180817;-0.000475891;-0.180237;3;;
661;;;;;;;7640.51;-0.175934;-0.000471191;-0.175354;3;;
663;;;;;;;7641;-0.171051;-0.000466003;-0.170502;3;;
665;;;;;;;7641.49;-0.166168;-0.000459595;-0.165619;3;;
667;;;;;;;7641.98;-0.161285;-0.000452759;-0.160767;3;;
669;;;;;;;7642.46;-0.156403;-0.000444458;-0.155853;3;;
671;;;;;;;7642.95;-0.15152;-0.000435181;-0.151001;3;;
673;;;;;;;7643.44;-0.146637;-0.000423737;-0.146149;3;;
675;;;;;;;7643.93;-0.141754;-0.000410492;-0.141266;3;;
677;;;;;;;7644.42;-0.136871;-0.000395844;-0.136414;3;;
679;;;;;;;7644.91;-0.131989;-0.000379211;-0.131561;3;;
681;;;;;;;7645.39;-0.127106;-0.000360657;-0.126587;3;;
683;;;;;;;7645.88;-0.122223;-0.000340302;-0.121765;3;;
685;;;;;;;7646.37;-0.11734;-0.000318176;-0.116882;3;;
687;;;;;;;7646.86;-0.112457;-0.000294586;-0.112061;3;;
689;;;;;;;7647.35;-0.107574;-0.000269623;-0.107147;3;;
691;;;;;;;7647.83;-0.102692;-0.000243774;-0.102295;3;;
693;;;;;;;7648.32;-0.0978088;-0.00021756;-0.0973511;3;;
695;;;;;;;7648.81;-0.092926;-0.000191193;-0.0924988;3;;
697;;;;;;;7649.3;-0.0880432;-0.000165253;-0.087677;3;;
699;;;;;;;7649.79;-0.0831604;-0.000140137;-0.0827942;3;;
701;;;;;;;7650.28;-0.0782776;-0.000116333;-0.0779419;3;;
703;;;;;;;7650.76;-0.0733948;-9.42993e-05;-0.0730286;3;;
705;;;;;;;7651.25;-0.068512;-7.44019e-05;-0.0680847;3;;
707;;;;;;;7651.74;-0.0636292;-5.70374e-05;-0.0632629;3;;
709;;;;;;;7652.23;-0.0587463;-4.2453e-05;-0.0583801;3;;
711;;;;;;;7652.72;-0.0538635;-3.04962e-05;-0.0534973;3;;
713;;;;;;;7653.21;-0.0489807;-2.11395e-05;-0.048587;3;;
715;;;;;;;7653.69;-0.0440979;-1.41022e-05;-0.0437073;3;;
717;;;;;;;7654.18;-0.0392151;-9.0271e-06;-0.0388489;3;;
719;;;;;;;7654.67;-0.0343323;-5.48096e-06;-0.0339905;3;;
721;;;;;;;7655.16;-0.0294495;-3.07281e-06;-0.0291138;3;;
723;;;;;;;7655.65;-0.0245667;-1.48651e-06;-0.0242371;3;;
725;;;;;;;7656.14;-0.0196838;-4.43115e-07;-0.0193634;3;;
727;;;;;;;7656.62;-0.014801;2.06909e-07;-0.0144897;3;;
729;;;;;;;7657.11;-0.00991821;6.36597e-07;-0.0096405;3;;
731;;;;;;;7657.6;-0.0050354;8.99353e-07;-0.00475769;3;;
733;;;;;;;7658.09;-0.000152588;1.06476e-06;0.000109863;3;;
735;;;;;;;7658.58;0.00473022;1.17798e-06;0.00497131;3;;
737;;;;;;;7659.07;0.00961304;1.23901e-06;0.00986328;3;;
739;;;;;;;7659.55;0.0144958;1.30035e-06;0.0147797;3;;
741;;;;;;;7660.04;0.0193787;1.32843e-06;0.0196625;3;;
743;;;;;;;7660.53;0.0242615;1.36414e-06;0.0245361;3;;
745;;;;;;;7661.02;0.0291443;1.38275e-06;0.0294281;3;;
747;;;;;;;7661.51;0.0340271;1.40594e-06;0.0343414;3;;
749;;;;;;;7661.99;0.0389099;1.4212e-06;0.0391693;3;;
751;;;;;;;7662.48;0.0437927;1.43829e-06;0.044043;3;;
753;;;;;;;7662.97;0.0486755;1.46027e-06;0.0489105;3;;
755;;;;;;;7663.46;0.0535583;1.474e-06;0.0535278;3;;
757;;;;;;;7663.95;0.0584412;1.50513e-06;0.0584106;3;;
759;;;;;;;7664.44;0.063324;1.5271e-06;0.0632935;3;;
761;;;;;;;7664.92;0.0682068;1.54541e-06;0.0681458;3;;
763;;;;;;;7665.41;0.0730896;1.57928e-06;0.072998;3;;
765;;;;;;;7665.9;0.0779724;1.60553e-06;0.0779724;3;;
767;;;;;;;7666.39;0.0828552;1.6333e-06;0.0827942;3;;
769;;;;;;;7666.88;0.087738;1.65924e-06;0.087677;3;;
771;;;;;;;7667.37;0.0926208;1.70593e-06;0.0925598;3;;
773;;;;;;;7667.85;0.0975037;1.74255e-06;0.0974426;3;;
775;;;;;;;7668.34;0.102386;1.78558e-06;0.102295;3;;
777;;;;;;;7668.83;0.107269;1.83685e-06;0.107178;3;;
779;;;;;;;7669.32;0.112152;1.88843e-06;0.112122;3;;
781;;;;;;;7669.81;0.107269;1.55212e-06;0.107208;3;;
783;;;;;;;7670.3;0.102386;1.37909e-06;0.102386;3;;
785;;;;;;;7670.78;0.0975037;1.24237e-06;0.0974426;3;;
787;;;;;;;7671.27;0.0926208;1.13892e-06;0.0925903;3;;
789;;;;;;;7671.76;0.087738;1.05164e-06;0.0877686;3;;
791;;;;;;;7672.25;0.0828552;9.75037e-07;0.0829163;3;;
793;;;;;;;7672.74;0.0779724;9.04846e-07;0.0780334;3;;
795;;;;;;;7673.23;0.0730896;8.49304e-07;0.0731201;3;;
797;;;;;;;7673.71;0.0682068;7.97729e-07;0.0682678;3;;
799;;;;;;;7674.2;0.063324;7.46765e-07;0.0634155;3;;
801;;;;;;;7674.69;0.0584412;7.00684e-07;0.0584412;3;;
803;;;;;;;7675.18;0.0535583;6.62842e-07;0.0535278;3;;
805;;;;;;;7675.67;0.0486755;6.2439e-07;0.0489288;3;;
807;;;;;;;7676.16;0.0437927;5.82581e-07;0.0440521;3;;
809;;;;;;;7676.64;0.0389099;5.49316e-07;0.0392029;3;;
811;;;;;;;7677.13;0.0340271;5.14832e-07;0.0342682;3;;
813;;;;;;;7677.62;0.0291443;4.82483e-07;0.0294403;3;;
815;;;;;;;7678.11;0.0242615;4.43726e-07;0.024527;3;;
817;;;;;;;7678.6;0.0193787;4.01001e-07;0.0196564;3;;
819;;;;;;;7679.08;0.0144958;3.42102e-07;0.0147705;3;;
821;;;;;;;7679.57;0.00961304;2.83813e-07;0.00991516;3;;
823;;;;;;;7680.06;0.00473022;2.0813e-07;0.00498352;3;;
825;;;;;;;7680.55;-0.000152588;9.28955e-08;0.000152588;3;;
827;;;;;;;7681.04;-0.0050354;-8.48999e-08;-0.00472717;3;;
829;;;;;;;7681.53;-0.00991821;-3.68042e-07;-0.00966797;3;;
831;;;;;;;;;;;;;
833;;;;;;;;;;;;;
835;;;;;;;;;;;;;
837;;;;;;;;;;;;;
839;;;;;;;;;;;;;
841;;;;;;;;;;;;;
843;;;;;;;;;;;;;
845;;;;;;;;;;;;;
847;;;;;;;;;;;;;
849;;;;;;;;;;;;;
851;;;;;;;;;;;;;
853;;;;;;;;;;;;;
855;;;;;;;;;;;;;
857;;;;;;;;;;;;;
859;;;;;;;;;;;;;
861;;;;;;;;;;;;;
863;;;;;;;;;;;;;
865;;;;;;;;;;;;;
867;;;;;;;;;;;;;
869;;;;;;;;;;;;;
871;;;;;;;;;;;;;
873;;;;;;;;;;;;;
875;;;;;;;;;;;;;
877;;;;;;;;;;;;;
879;;;;;;;;;;;;;
881;;;;;;;;;;;;;
883;;;;;;;;;;;;;
885;;;;;;;;;;;;;
887;;;;;;;;;;;;;
889;;;;;;;;;;;;;
891;;;;;;;;;;;;;
893;;;;;;;;;;;;;
895;;;;;;;;;;;;;
897;;;;;;;;;;;;;
899;;;;;;;;;;;;;
901;;;;;;;;;;;;;
903;;;;;;;;;;;;;
905;;;;;;;;;;;;;
907;;;;;;;;;;;;;
909;;;;;;;;;;;;;
911;;;;;;;;;;;;;
913;;;;;;;;;;;;;
915;;;;;;;;;;;;;
917;;;;;;;;;;;;;
919;;;;;;;;;;;;;
921;;;;;;;;;;;;;
923;;;;;;;;;;;;;
925;;;;;;;;;;;;;
927;;;;;;;;;;;;;
929;;;;;;;;;;;;;
931;;;;;;;;;;;;;
933;;;;;;;;;;;;;
935;;;;;;;;;;;;;
937;;;;;;;;;;;;;
939;;;;;;;;;;;;;
941;;;;;;;;;;;;;
943;;;;;;;;;;;;;
945;;;;;;;;;;;;;
947;;;;;;;;;;;;;
949;;;;;;;;;;;;;
951;;;;;;;;;;;;;
953;;;;;;;;;;;;;
955;;;;;;;;;;;;;
957;;;;;;;;;;;;;
959;;;;;;;;;;;;;
961;;;;;;;;;;;;;
963;;;;;;;;;;;;;
965;;;;;;;;;;;;;
967;;;;;;;;;;;;;
969;;;;;;;;;;;;;
971;;;;;;;;;;;;;
973;;;;;;;;;;;;;
975;;;;;;;;;;;;;
977;;;;;;;;;;;;;
979;;;;;;;;;;;;;
981;;;;;;;;;;;;;
983;;;;;;;;;;;;;
985;;;;;;;;;;;;;
987;;;;;;;;;;;;;
989;;;;;;;;;;;;;
991;;;;;;;;;;;;;
993;;;;;;;;;;;;;
995;;;;;;;;;;;;;
997;;;;;;;;;;;;;
999;;;;;;;;;;;;;
1001;;;;;;;;;;;;;
1003;;;;;;;;;;;;;
1005;;;;;;;;;;;;;
1007;;;;;;;;;;;;;
1009;;;;;;;;;;;;;
1011;;;;;;;;;;;;;
1013;;;;;;;;;;;;;
1015;;;;;;;;;;;;;
1017;;;;;;;;;;;;;
1019;;;;;;;;;;;;;
1021;;;;;;;;;;;;;
1023;;;;;;;;;;;;;
1025;;;;;;;;;;;;;
1027;;;;;;;;;;;;;
1029;;;;;;;;;;;;;
1031;;;;;;;;;;;;;
1033;;;;;;;;;;;;;
1035;;;;;;;;;;;;;
1037;;;;;;;;;;;;;
1039;;;;;;;;;;;;;
1041;;;;;;;;;;;;;
1043;;;;;;;;;;;;;
1045;;;;;;;;;;;;;
1047;;;;;;;;;;;;;
1049;;;;;;;;;;;;;
1051;;;;;;;;;;;;;
1053;;;;;;;;;;;;;
1055;;;;;;;;;;;;;
1057;;;;;;;;;;;;;
1059;;;;;;;;;;;;;
1061;;;;;;;;;;;;;
1063;;;;;;;;;;;;;
1065;;;;;;;;;;;;;
1067;;;;;;;;;;;;;
1069;;;;;;;;;;;;;
1071;;;;;;;;;;;;;
1073;;;;;;;;;;;;;
1075;;;;;;;;;;;;;
1077;;;;;;;;;;;;;
1079;;;;;;;;;;;;;
1081;;;;;;;;;;;;;
1083;;;;;;;;;;;;;
1085;;;;;;;;;;;;;
1087;;;;;;;;;;;;;
1089;;;;;;;;;;;;;
1091;;;;;;;;;;;;;
1093;;;;;;;;;;;;;
1095;;;;;;;;;;;;;
1097;;;;;;;;;;;;;
1099;;;;;;;;;;;;;
1101;;;;;;;;;;;;;
1103;;;;;;;;;;;;;
1105;;;;;;;;;;;;;
1107;;;;;;;;;;;;;
1109;;;;;;;;;;;;;
1111;;;;;;;;;;;;;
1113;;;;;;;;;;;;;
1115;;;;;;;;;;;;;
1117;;;;;;;;;;;;;
1119;;;;;;;;;;;;;
1121;;;;;;;;;;;;;
1123;;;;;;;;;;;;;
1125;;;;;;;;;;;;;
1127;;;;;;;;;;;;;
1129;;;;;;;;;;;;;
1131;;;;;;;;;;;;;
1133;;;;;;;;;;;;;
1135;;;;;;;;;;;;;
1137;;;;;;;;;;;;;
1139;;;;;;;;;;;;;
1141;;;;;;;;;;;;;
1143;;;;;;;;;;;;;
1145;;;;;;;;;;;;;
1147;;;;;;;;;;;;;
1149;;;;;;;;;;;;;
1151;;;;;;;;;;;;;
1153;;;;;;;;;;;;;
1155;;;;;;;;;;;;;
1157;;;;;;;;;;;;;
1159;;;;;;;;;;;;;
1161;;;;;;;;;;;;;
1163;;;;;;;;;;;;;
1165;;;;;;;;;;;;;
1167;;;;;;;;;;;;;
1169;;;;;;;;;;;;;
1171;;;;;;;;;;;;;
1173;;;;;;;;;;;;;
1175;;;;;;;;;;;;;
1177;;;;;;;;;;;;;
1179;;;;;;;;;;;;;
1181;;;;;;;;;;;;;
1183;;;;;;;;;;;;;
1185;;;;;;;;;;;;;
1187;;;;;;;;;;;;;
1189;;;;;;;;;;;;;
1191;;;;;;;;;;;;;
1193;;;;;;;;;;;;;
1195;;;;;;;;;;;;;
1197;;;;;;;;;;;;;
1199;;;;;;;;;;;;;
1201;;;;;;;;;;;;;
1203;;;;;;;;;;;;;
1205;;;;;;;;;;;;;
1207;;;;;;;;;;;;;
1209;;;;;;;;;;;;;
1211;;;;;;;;;;;;;
1213;;;;;;;;;;;;;
1215;;;;;;;;;;;;;
1217;;;;;;;;;;;;;
1219;;;;;;;;;;;;;
1221;;;;;;;;;;;;;
1223;;;;;;;;;;;;;
1225;;;;;;;;;;;;;
1227;;;;;;;;;;;;;
1229;;;;;;;;;;;;;
1231;;;;;;;;;;;;;
1233;;;;;;;;;;;;;
1235;;;;;;;;;;;;;
1237;;;;;;;;;;;;;
1239;;;;;;;;;;;;;
1241;;;;;;;;;;;;;
1243;;;;;;;;;;;;;
1245;;;;;;;;;;;;;
1247;;;;;;;;;;;;;
1249;;;;;;;;;;;;;
1251;;;;;;;;;;;;;
1253;;;;;;;;;;;;;
1255;;;;;;;;;;;;;
1257;;;;;;;;;;;;;
1259;;;;;;;;;;;;;
1261;;;;;;;;;;;;;
1263;;;;;;;;;;;;;
1265;;;;;;;;;;;;;
1267;;;;;;;;;;;;;
1269;;;;;;;;;;;;;
1271;;;;;;;;;;;;;
1273;;;;;;;;;;;;;
1275;;;;;;;;;;;;;
1277;;;;;;;;;;;;;
1279;;;;;;;;;;;;;
1281;;;;;;;;;;;;;
1283;;;;;;;;;;;;;
1285;;;;;;;;;;;;;
1287;;;;;;;;;;;;;
1289;;;;;;;;;;;;;
1291;;;;;;;;;;;;;
1293;;;;;;;;;;;;;
1295;;;;;;;;;;;;;
1297;;;;;;;;;;;;;
1299;;;;;;;;;;;;;
1301;;;;;;;;;;;;;
1303;;;;;;;;;;;;;
1305;;;;;;;;;;;;;
1307;;;;;;;;;;;;;
1309;;;;;;;;;;;;;
1311;;;;;;;;;;;;;
1313;;;;;;;;;;;;;
1315;;;;;;;;;;;;;
1317;;;;;;;;;;;;;
1319;;;;;;;;;;;;;
1321;;;;;;;;;;;;;
1323;;;;;;;;;;;;;
1325;;;;;;;;;;;;;
1327;;;;;;;;;;;;;
1329;;;;;;;;;;;;;
1331;;;;;;;;;;;;;
1333;;;;;;;;;;;;;
1335;;;;;;;;;;;;;
1337;;;;;;;;;;;;;
1339;;;;;;;;;;;;;
1341;;;;;;;;;;;;;
1343;;;;;;;;;;;;;
1345;;;;;;;;;;;;;
1347;;;;;;;;;;;;;
1349;;;;;;;;;;;;;
1351;;;;;;;;;;;;;
1353;;;;;;;;;;;;;
1355;;;;;;;;;;;;;
1357;;;;;;;;;;;;;
1359;;;;;;;;;;;;;
1361;;;;;;;;;;;;;
1363;;;;;;;;;;;;;
1365;;;;;;;;;;;;;
1367;;;;;;;;;;;;;
1369;;;;;;;;;;;;;
1371;;;;;;;;;;;;;
1373;;;;;;;;;;;;;
1375;;;;;;;;;;;;;
1377;;;;;;;;;;;;;
1379;;;;;;;;;;;;;
1381;;;;;;;;;;;;;
1383;;;;;;;;;;;;;
1385;;;;;;;;;;;;;
1387;;;;;;;;;;;;;
1389;;;;;;;;;;;;;
1391;;;;;;;;;;;;;
1393;;;;;;;;;;;;;
1395;;;;;;;;;;;;;
1397;;;;;;;;;;;;;
1399;;;;;;;;;;;;;
1401;;;;;;;;;;;;;
1403;;;;;;;;;;;;;
1405;;;;;;;;;;;;;
1407;;;;;;;;;;;;;
1409;;;;;;;;;;;;;
1411;;;;;;;;;;;;;
1413;;;;;;;;;;;;;
1415;;;;;;;;;;;;;
1417;;;;;;;;;;;;;
1419;;;;;;;;;;;;;
1421;;;;;;;;;;;;;
1423;;;;;;;;;;;;;
1425;;;;;;;;;;;;;
1427;;;;;;;;;;;;;
1429;;;;;;;;;;;;;
1431;;;;;;;;;;;;;
1433;;;;;;;;;;;;;
1435;;;;;;;;;;;;;
1437;;;;;;;;;;;;;
1439;;;;;;;;;;;;;
1441;;;;;;;;;;;;;
1443;;;;;;;;;;;;;
1445;;;;;;;;;;;;;
1447;;;;;;;;;;;;;
1449;;;;;;;;;;;;;
1451;;;;;;;;;;;;;
1453;;;;;;;;;;;;;
1455;;;;;;;;;;;;;
1457;;;;;;;;;;;;;
1459;;;;;;;;;;;;;
1461;;;;;;;;;;;;;
1463;;;;;;;;;;;;;
1465;;;;;;;;;;;;;
1467;;;;;;;;;;;;;
1469;;;;;;;;;;;;;
1471;;;;;;;;;;;;;
1473;;;;;;;;;;;;;
1475;;;;;;;;;;;;;
1477;;;;;;;;;;;;;
1479;;;;;;;;;;;;;
1481;;;;;;;;;;;;;
1483;;;;;;;;;;;;;
1485;;;;;;;;;;;;;
1487;;;;;;;;;;;;;
1489;;;;;;;;;;;;;
1491;;;;;;;;;;;;;
1493;;;;;;;;;;;;;
1495;;;;;;;;;;;;;
1497;;;;;;;;;;;;;
1499;;;;;;;;;;;;;
1501;;;;;;;;;;;;;
1503;;;;;;;;;;;;;
1505;;;;;;;;;;;;;
1507;;;;;;;;;;;;;
1509;;;;;;;;;;;;;
1511;;;;;;;;;;;;;
1513;;;;;;;;;;;;;
1515;;;;;;;;;;;;;
1517;;;;;;;;;;;;;
1519;;;;;;;;;;;;;
1521;;;;;;;;;;;;;
1523;;;;;;;;;;;;;
1525;;;;;;;;;;;;;
1527;;;;;;;;;;;;;
1529;;;;;;;;;;;;;
1531;;;;;;;;;;;;;
1533;;;;;;;;;;;;;
1535;;;;;;;;;;;;;
1537;;;;;;;;;;;;;
1539;;;;;;;;;;;;;
1541;;;;;;;;;;;;;
1543;;;;;;;;;;;;;
1545;;;;;;;;;;;;;
1547;;;;;;;;;;;;;
1549;;;;;;;;;;;;;
1551;;;;;;;;;;;;;
1553;;;;;;;;;;;;;
1555;;;;;;;;;;;;;
1557;;;;;;;;;;;;;
1559;;;;;;;;;;;;;
1561;;;;;;;;;;;;;
1563;;;;;;;;;;;;;
1565;;;;;;;;;;;;;
1567;;;;;;;;;;;;;
1569;;;;;;;;;;;;;
1571;;;;;;;;;;;;;
1573;;;;;;;;;;;;;
1575;;;;;;;;;;;;;
1577;;;;;;;;;;;;;
1579;;;;;;;;;;;;;
1581;;;;;;;;;;;;;
1583;;;;;;;;;;;;;
1585;;;;;;;;;;;;;
1587;;;;;;;;;;;;;
1589;;;;;;;;;;;;;
1591;;;;;;;;;;;;;
1593;;;;;;;;;;;;;
1595;;;;;;;;;;;;;
1597;;;;;;;;;;;;;
1599;;;;;;;;;;;;;
1601;;;;;;;;;;;;;
1603;;;;;;;;;;;;;
1605;;;;;;;;;;;;;
1607;;;;;;;;;;;;;
1609;;;;;;;;;;;;;
1611;;;;;;;;;;;;;
1613;;;;;;;;;;;;;
1615;;;;;;;;;;;;;
1617;;;;;;;;;;;;;
1619;;;;;;;;;;;;;
1621;;;;;;;;;;;;;
1623;;;;;;;;;;;;;
1625;;;;;;;;;;;;;
1627;;;;;;;;;;;;;
1629;;;;;;;;;;;;;
1631;;;;;;;;;;;;;
1633;;;;;;;;;;;;;
1635;;;;;;;;;;;;;
1637;;;;;;;;;;;;;
1639;;;;;;;;;;;;;
1641;;;;;;;;;;;;;
1643;;;;;;;;;;;;;
1645;;;;;;;;;;;;;
1647;;;;;;;;;;;;;
1649;;;;;;;;;;;;;
1651;;;;;;;;;;;;;
1653;;;;;;;;;;;;;
1655;;;;;;;;;;;;;
1657;;;;;;;;;;;;;
1659;;;;;;;;;;;;;
1661;;;;;;;;;;;;;
1663;;;;;;;;;;;;;
1665;;;;;;;;;;;;;
1667;;;;;;;;;;;;;
1669;;;;;;;;;;;;;
1671;;;;;;;;;;;;;
1673;;;;;;;;;;;;;
1675;;;;;;;;;;;;;
1677;;;;;;;;;;;;;
1679;;;;;;;;;;;;;
1681;;;;;;;;;;;;;
1683;;;;;;;;;;;;;
1685;;;;;;;;;;;;;
1687;;;;;;;;;;;;;
1689;;;;;;;;;;;;;
1691;;;;;;;;;;;;;
1693;;;;;;;;;;;;;
1695;;;;;;;;;;;;;
1697;;;;;;;;;;;;;
1699;;;;;;;;;;;;;
1701;;;;;;;;;;;;;
1703;;;;;;;;;;;;;
1705;;;;;;;;;;;;;
1707;;;;;;;;;;;;;
1709;;;;;;;;;;;;;
1711;;;;;;;;;;;;;
1713;;;;;;;;;;;;;
1715;;;;;;;;;;;;;
1717;;;;;;;;;;;;;
1719;;;;;;;;;;;;;
1721;;;;;;;;;;;;;
1723;;;;;;;;;;;;;
1725;;;;;;;;;;;;;
1727;;;;;;;;;;;;;
1729;;;;;;;;;;;;;
1731;;;;;;;;;;;;;
1733;;;;;;;;;;;;;
1735;;;;;;;;;;;;;
1737;;;;;;;;;;;;;
1739;;;;;;;;;;;;;
1741;;;;;;;;;;;;;
1743;;;;;;;;;;;;;
1745;;;;;;;;;;;;;
1747;;;;;;;;;;;;;
1749;;;;;;;;;;;;;
1751;;;;;;;;;;;;;
1753;;;;;;;;;;;;;
1755;;;;;;;;;;;;;
1757;;;;;;;;;;;;;
1759;;;;;;;;;;;;;
1761;;;;;;;;;;;;;
1763;;;;;;;;;;;;;
1765;;;;;;;;;;;;;
1767;;;;;;;;;;;;;
1769;;;;;;;;;;;;;
1771;;;;;;;;;;;;;
1773;;;;;;;;;;;;;
1775;;;;;;;;;;;;;
1777;;;;;;;;;;;;;
1779;;;;;;;;;;;;;
1781;;;;;;;;;;;;;
1783;;;;;;;;;;;;;
1785;;;;;;;;;;;;;
1787;;;;;;;;;;;;;
1789;;;;;;;;;;;;;
1791;;;;;;;;;;;;;
1793;;;;;;;;;;;;;
1795;;;;;;;;;;;;;
1797;;;;;;;;;;;;;
1799;;;;;;;;;;;;;
1801;;;;;;;;;;;;;
1803;;;;;;;;;;;;;
1805;;;;;;;;;;;;;
1807;;;;;;;;;;;;;
1809;;;;;;;;;;;;;
1811;;;;;;;;;;;;;
1813;;;;;;;;;;;;;
1815;;;;;;;;;;;;;
1817;;;;;;;;;;;;;
1819;;;;;;;;;;;;;
1821;;;;;;;;;;;;;
1823;;;;;;;;;;;;;
1825;;;;;;;;;;;;;
1827;;;;;;;;;;;;;
1829;;;;;;;;;;;;;
1831;;;;;;;;;;;;;
1833;;;;;;;;;;;;;
1835;;;;;;;;;;;;;
1837;;;;;;;;;;;;;
1839;;;;;;;;;;;;;
1841;;;;;;;;;;;;;
1843;;;;;;;;;;;;;
1845;;;;;;;;;;;;;
1847;;;;;;;;;;;;;
1849;;;;;;;;;;;;;
1851;;;;;;;;;;;;;
1853;;;;;;;;;;;;;
1855;;;;;;;;;;;;;
1857;;;;;;;;;;;;;
1859;;;;;;;;;;;;;
1861;;;;;;;;;;;;;
1863;;;;;;;;;;;;;
1865;;;;;;;;;;;;;
1867;;;;;;;;;;;;;
1869;;;;;;;;;;;;;
1871;;;;;;;;;;;;;
1873;;;;;;;;;;;;;
1875;;;;;;;;;;;;;
1877;;;;;;;;;;;;;
1879;;;;;;;;;;;;;
1881;;;;;;;;;;;;;
1883;;;;;;;;;;;;;
1885;;;;;;;;;;;;;
1887;;;;;;;;;;;;;
1889;;;;;;;;;;;;;
1891;;;;;;;;;;;;;
1893;;;;;;;;;;;;;
1895;;;;;;;;;;;;;
1897;;;;;;;;;;;;;
1899;;;;;;;;;;;;;
1901;;;;;;;;;;;;;
1903;;;;;;;;;;;;;
1905;;;;;;;;;;;;;
1907;;;;;;;;;;;;;
1909;;;;;;;;;;;;;
1911;;;;;;;;;;;;;
1913;;;;;;;;;;;;;
1915;;;;;;;;;;;;;
1917;;;;;;;;;;;;;
1919;;;;;;;;;;;;;
1921;;;;;;;;;;;;;
1923;;;;;;;;;;;;;
1925;;;;;;;;;;;;;
1927;;;;;;;;;;;;;
1929;;;;;;;;;;;;;
1931;;;;;;;;;;;;;
1933;;;;;;;;;;;;;
1935;;;;;;;;;;;;;
1937;;;;;;;;;;;;;
1939;;;;;;;;;;;;;
1941;;;;;;;;;;;;;
1943;;;;;;;;;;;;;
1945;;;;;;;;;;;;;
1947;;;;;;;;;;;;;
1949;;;;;;;;;;;;;
1951;;;;;;;;;;;;;
1953;;;;;;;;;;;;;
1955;;;;;;;;;;;;;
1957;;;;;;;;;;;;;
1959;;;;;;;;;;;;;
1961;;;;;;;;;;;;;
1963;;;;;;;;;;;;;
1965;;;;;;;;;;;;;
1967;;;;;;;;;;;;;
1969;;;;;;;;;;;;;
1971;;;;;;;;;;;;;
1973;;;;;;;;;;;;;
1975;;;;;;;;;;;;;
1977;;;;;;;;;;;;;
1979;;;;;;;;;;;;;
1981;;;;;;;;;;;;;
1983;;;;;;;;;;;;;
1985;;;;;;;;;;;;;
1987;;;;;;;;;;;;;
1989;;;;;;;;;;;;;
1991;;;;;;;;;;;;;
1993;;;;;;;;;;;;;
1995;;;;;;;;;;;;;
1997;;;;;;;;;;;;;
1999;;;;;;;;;;;;;
2001;;;;;;;;;;;;;
2003;;;;;;;;;;;;;
2005;;;;;;;;;;;;;
2007;;;;;;;;;;;;;
2009;;;;;;;;;;;;;
2011;;;;;;;;;;;;;
2013;;;;;;;;;;;;;
2015;;;;;;;;;;;;;
2017;;;;;;;;;;;;;
2019;;;;;;;;;;;;;
2021;;;;;;;;;;;;;
2023;;;;;;;;;;;;;
2025;;;;;;;;;;;;;
2027;;;;;;;;;;;;;
2029;;;;;;;;;;;;;
2031;;;;;;;;;;;;;
2033;;;;;;;;;;;;;
2035;;;;;;;;;;;;;
2037;;;;;;;;;;;;;
2039;;;;;;;;;;;;;
2041;;;;;;;;;;;;;
2043;;;;;;;;;;;;;
2045;;;;;;;;;;;;;
2047;;;;;;;;;;;;;
2049;;;;;;;;;;;;;
2051;;;;;;;;;;;;;
2053;;;;;;;;;;;;;
2055;;;;;;;;;;;;;
2057;;;;;;;;;;;;;
2059;;;;;;;;;;;;;
2061;;;;;;;;;;;;;
2063;;;;;;;;;;;;;
2065;;;;;;;;;;;;;
2067;;;;;;;;;;;;;
2069;;;;;;;;;;;;;
2071;;;;;;;;;;;;;
2073;;;;;;;;;;;;;
2075;;;;;;;;;;;;;
2077;;;;;;;;;;;;;
2079;;;;;;;;;;;;;
2081;;;;;;;;;;;;;
2083;;;;;;;;;;;;;
2085;;;;;;;;;;;;;
2087;;;;;;;;;;;;;
2089;;;;;;;;;;;;;
2091;;;;;;;;;;;;;
2093;;;;;;;;;;;;;
2095;;;;;;;;;;;;;
2097;;;;;;;;;;;;;
2099;;;;;;;;;;;;;
2101;;;;;;;;;;;;;
2103;;;;;;;;;;;;;
2105;;;;;;;;;;;;;
2107;;;;;;;;;;;;;
2109;;;;;;;;;;;;;
2111;;;;;;;;;;;;;
2113;;;;;;;;;;;;;
2115;;;;;;;;;;;;;
2117;;;;;;;;;;;;;
2119;;;;;;;;;;;;;
2121;;;;;;;;;;;;;
2123;;;;;;;;;;;;;
2125;;;;;;;;;;;;;
2127;;;;;;;;;;;;;
2129;;;;;;;;;;;;;
2131;;;;;;;;;;;;;
2133;;;;;;;;;;;;;
2135;;;;;;;;;;;;;
2137;;;;;;;;;;;;;
2139;;;;;;;;;;;;;
2141;;;;;;;;;;;;;
2143;;;;;;;;;;;;;
2145;;;;;;;;;;;;;
2147;;;;;;;;;;;;;
2149;;;;;;;;;;;;;
2151;;;;;;;;;;;;;
2153;;;;;;;;;;;;;
2155;;;;;;;;;;;;;
2157;;;;;;;;;;;;;
2159;;;;;;;;;;;;;
2161;;;;;;;;;;;;;
2163;;;;;;;;;;;;;
2165;;;;;;;;;;;;;
2167;;;;;;;;;;;;;
2169;;;;;;;;;;;;;
2171;;;;;;;;;;;;;
2173;;;;;;;;;;;;;
2175;;;;;;;;;;;;;
2177;;;;;;;;;;;;;
2179;;;;;;;;;;;;;
2181;;;;;;;;;;;;;
2183;;;;;;;;;;;;;
2185;;;;;;;;;;;;;
2187;;;;;;;;;;;;;
2189;;;;;;;;;;;;;
2191;;;;;;;;;;;;;
2193;;;;;;;;;;;;;
2195;;;;;;;;;;;;;
2197;;;;;;;;;;;;;
2199;;;;;;;;;;;;;
2201;;;;;;;;;;;;;
2203;;;;;;;;;;;;;
2205;;;;;;;;;;;;;
2207;;;;;;;;;;;;;
2209;;;;;;;;;;;;;
2211;;;;;;;;;;;;;
2213;;;;;;;;;;;;;
2215;;;;;;;;;;;;;
2217;;;;;;;;;;;;;
2219;;;;;;;;;;;;;
2221;;;;;;;;;;;;;
2223;;;;;;;;;;;;;
2225;;;;;;;;;;;;;
2227;;;;;;;;;;;;;
2229;;;;;;;;;;;;;
2231;;;;;;;;;;;;;
2233;;;;;;;;;;;;;
2235;;;;;;;;;;;;;
2237;;;;;;;;;;;;;
2239;;;;;;;;;;;;;
2241;;;;;;;;;;;;;
2243;;;;;;;;;;;;;
2245;;;;;;;;;;;;;
2247;;;;;;;;;;;;;
2249;;;;;;;;;;;;;
2251;;;;;;;;;;;;;
2253;;;;;;;;;;;;;
2255;;;;;;;;;;;;;
2257;;;;;;;;;;;;;
2259;;;;;;;;;;;;;
2261;;;;;;;;;;;;;
2263;;;;;;;;;;;;;
2265;;;;;;;;;;;;;
2267;;;;;;;;;;;;;
2269;;;;;;;;;;;;;
2271;;;;;;;;;;;;;
2273;;;;;;;;;;;;;
2275;;;;;;;;;;;;;
2277;;;;;;;;;;;;;
2279;;;;;;;;;;;;;
2281;;;;;;;;;;;;;
2283;;;;;;;;;;;;;
2285;;;;;;;;;;;;;
2287;;;;;;;;;;;;;
2289;;;;;;;;;;;;;
2291;;;;;;;;;;;;;
2293;;;;;;;;;;;;;
2295;;;;;;;;;;;;;
2297;;;;;;;;;;;;;
2299;;;;;;;;;;;;;
2301;;;;;;;;;;;;;
2303;;;;;;;;;;;;;
2305;;;;;;;;;;;;;
2307;;;;;;;;;;;;;
2309;;;;;;;;;;;;;
2311;;;;;;;;;;;;;
2313;;;;;;;;;;;;;
2315;;;;;;;;;;;;;
2317;;;;;;;;;;;;;
2319;;;;;;;;;;;;;
2321;;;;;;;;;;;;;
2323;;;;;;;;;;;;;
2325;;;;;;;;;;;;;
2327;;;;;;;;;;;;;
2329;;;;;;;;;;;;;
2331;;;;;;;;;;;;;
2333;;;;;;;;;;;;;
2335;;;;;;;;;;;;;
2337;;;;;;;;;;;;;
2339;;;;;;;;;;;;;
2341;;;;;;;;;;;;;
2343;;;;;;;;;;;;;
2345;;;;;;;;;;;;;
2347;;;;;;;;;;;;;
2349;;;;;;;;;;;;;
2351;;;;;;;;;;;;;
2353;;;;;;;;;;;;;
2355;;;;;;;;;;;;;
2357;;;;;;;;;;;;;
2359;;;;;;;;;;;;;
2361;;;;;;;;;;;;;
2363;;;;;;;;;;;;;
2365;;;;;;;;;;;;;
2367;;;;;;;;;;;;;
2369;;;;;;;;;;;;;
2371;;;;;;;;;;;;;
2373;;;;;;;;;;;;;
2375;;;;;;;;;;;;;
2377;;;;;;;;;;;;;
2379;;;;;;;;;;;;;
2381;;;;;;;;;;;;;
2383;;;;;;;;;;;;;
2385;;;;;;;;;;;;;
2387;;;;;;;;;;;;;
2389;;;;;;;;;;;;;
2391;;;;;;;;;;;;;
2393;;;;;;;;;;;;;
2395;;;;;;;;;;;;;
2397;;;;;;;;;;;;;
2399;;;;;;;;;;;;;
2401;;;;;;;;;;;;;
2403;;;;;;;;;;;;;
2405;;;;;;;;;;;;;
2407;;;;;;;;;;;;;
2409;;;;;;;;;;;;;
2411;;;;;;;;;;;;;
2413;;;;;;;;;;;;;
2415;;;;;;;;;;;;;
2417;;;;;;;;;;;;;
2419;;;;;;;;;;;;;
2421;;;;;;;;;;;;;
2423;;;;;;;;;;;;;
2425;;;;;;;;;;;;;
2427;;;;;;;;;;;;;
2429;;;;;;;;;;;;;
2431;;;;;;;;;;;;;
2433;;;;;;;;;;;;;
2435;;;;;;;;;;;;;
2437;;;;;;;;;;;;;
2439;;;;;;;;;;;;;
2441;;;;;;;;;;;;;
2443;;;;;;;;;;;;;
2445;;;;;;;;;;;;;
2447;;;;;;;;;;;;;
2449;;;;;;;;;;;;;
2451;;;;;;;;;;;;;
2453;;;;;;;;;;;;;
2455;;;;;;;;;;;;;
2457;;;;;;;;;;;;;
2459;;;;;;;;;;;;;
2461;;;;;;;;;;;;;
2463;;;;;;;;;;;;;
2465;;;;;;;;;;;;;
2467;;;;;;;;;;;;;
2469;;;;;;;;;;;;;
2471;;;;;;;;;;;;;
2473;;;;;;;;;;;;;
2475;;;;;;;;;;;;;
2477;;;;;;;;;;;;;
2479;;;;;;;;;;;;;
2481;;;;;;;;;;;;;
2483;;;;;;;;;;;;;
2485;;;;;;;;;;;;;
2487;;;;;;;;;;;;;
2489;;;;;;;;;;;;;
2491;;;;;;;;;;;;;
2493;;;;;;;;;;;;;
2495;;;;;;;;;;;;;
2497;;;;;;;;;;;;;
2499;;;;;;;;;;;;;
2501;;;;;;;;;;;;;
2503;;;;;;;;;;;;;
2505;;;;;;;;;;;;;
2507;;;;;;;;;;;;;
2509;;;;;;;;;;;;;
2511;;;;;;;;;;;;;
2513;;;;;;;;;;;;;
2515;;;;;;;;;;;;;
2517;;;;;;;;;;;;;
2519;;;;;;;;;;;;;
2521;;;;;;;;;;;;;
2523;;;;;;;;;;;;;
2525;;;;;;;;;;;;;
2527;;;;;;;;;;;;;
2529;;;;;;;;;;;;;
2531;;;;;;;;;;;;;
2533;;;;;;;;;;;;;
2535;;;;;;;;;;;;;
2536;;;;;;;;;;;;;