File: carbon_superP/O2_0750rpm.txt
Index;Column 2 (V);Column 3 (V);Column 4 (V);Column 5 (V);Column 6 (V/s);Column 7 (V);Time (s);Potential applied (V);WE(1).Current (A);WE(1).Potential (V);Scan;Column 13 (RPM);ω (rad/s)
1;0;0.01;-1;-0.01;0.01;-0.00244;8275.15;-0.0146484;1.70685e-06;-0.0143921;3;750;78.5398
3;;;;;;;8275.64;-0.01953125;1.38245e-06;-0.0192261;3;;
5;;;;;;;8276.13;-0.0244141;1.12274e-06;-0.0241302;3;;
7;;;;;;;8276.61;-0.0292969;8.67615e-07;-0.028952;3;;
9;;;;;;;8277.1;-0.0341797;6.61316e-07;-0.0338776;3;;
11;;;;;;;8277.59;-0.0390625;4.73938e-07;-0.0387268;3;;
13;;;;;;;8278.08;-0.0439453;2.56042e-07;-0.0435822;3;;
15;;;;;;;8278.57;-0.0488281;8.60596e-08;-0.0485565;3;;
17;;;;;;;8279.06;-0.0537109;-8.17871e-08;-0.0534973;3;;
19;;;;;;;8279.54;-0.05859375;-2.39563e-07;-0.0582886;3;;
21;;;;;;;8280.03;-0.0634766;-4.56848e-07;-0.0631714;3;;
23;;;;;;;8280.52;-0.0683594;-6.24695e-07;-0.0681458;3;;
25;;;;;;;8281.01;-0.0732422;-8.37402e-07;-0.0729065;3;;
27;;;;;;;8281.5;-0.078125;-1.04858e-06;-0.0777283;3;;
29;;;;;;;8281.98;-0.0830078;-1.28937e-06;-0.0826416;3;;
31;;;;;;;8282.47;-0.0878906;-1.54877e-06;-0.0874939;3;;
33;;;;;;;8282.96;-0.0927734;-1.83594e-06;-0.0922546;3;;
35;;;;;;;8283.45;-0.09765625;-2.1582e-06;-0.097168;3;;
37;;;;;;;8283.94;-0.102539;-2.51312e-06;-0.101898;3;;
39;;;;;;;8284.43;-0.107422;-2.92084e-06;-0.106689;3;;
41;;;;;;;8284.91;-0.112305;-3.39478e-06;-0.112;3;;
43;;;;;;;8285.4;-0.1171875;-3.93066e-06;-0.116791;3;;
45;;;;;;;8285.89;-0.12207;-4.53491e-06;-0.121674;3;;
47;;;;;;;8286.38;-0.126953;-5.17578e-06;-0.126526;3;;
49;;;;;;;8286.87;-0.131836;-5.96008e-06;-0.131409;3;;
51;;;;;;;8287.36;-0.136719;-6.83289e-06;-0.136261;3;;
53;;;;;;;8287.84;-0.141602;-7.79419e-06;-0.141052;3;;
55;;;;;;;8288.33;-0.146484;-8.9447e-06;-0.145996;3;;
57;;;;;;;8288.82;-0.151367;-1.01746e-05;-0.150879;3;;
59;;;;;;;8289.31;-0.15625;-1.1615e-05;-0.15567;3;;
61;;;;;;;8289.8;-0.161133;-1.31897e-05;-0.160583;3;;
63;;;;;;;8290.29;-0.166016;-1.49567e-05;-0.165466;3;;
65;;;;;;;8290.77;-0.170898;-1.70166e-05;-0.170258;3;;
67;;;;;;;8291.26;-0.175781;-1.92902e-05;-0.175079;3;;
69;;;;;;;8291.75;-0.180664;-2.19055e-05;-0.179932;3;;
71;;;;;;;8292.24;-0.185547;-2.48077e-05;-0.184723;3;;
73;;;;;;;8292.73;-0.19043;-2.80884e-05;-0.189667;3;;
75;;;;;;;8293.22;-0.1953125;-3.17444e-05;-0.194427;3;;
77;;;;;;;8293.7;-0.200195;-3.58368e-05;-0.199707;3;;
79;;;;;;;8294.19;-0.205078;-4.04327e-05;-0.204498;3;;
81;;;;;;;8294.68;-0.209961;-4.55933e-05;-0.209381;3;;
83;;;;;;;8295.17;-0.214844;-5.14832e-05;-0.214264;3;;
85;;;;;;;8295.66;-0.219727;-5.8075e-05;-0.219208;3;;
87;;;;;;;8296.14;-0.224609;-6.55212e-05;-0.22403;3;;
89;;;;;;;8296.63;-0.229492;-7.39136e-05;-0.228943;3;;
91;;;;;;;8297.12;-0.234375;-8.32825e-05;-0.233795;3;;
93;;;;;;;8297.61;-0.239258;-9.375E-05;-0.238586;3;;
95;;;;;;;8298.1;-0.244141;-0.000105438;-0.243469;3;;
97;;;;;;;8298.59;-0.249023;-0.000118378;-0.248352;3;;
99;;;;;;;8299.07;-0.253906;-0.000132782;-0.253143;3;;
101;;;;;;;8299.56;-0.258789;-0.000148865;-0.258087;3;;
103;;;;;;;8300.05;-0.263672;-0.000166687;-0.262848;3;;
105;;;;;;;8300.54;-0.268555;-0.000186432;-0.2677;3;;
107;;;;;;;8301.03;-0.2734375;-0.00020813;-0.272583;3;;
109;;;;;;;8301.52;-0.27832;-0.000231537;-0.277374;3;;
111;;;;;;;8302;-0.283203;-0.000256927;-0.282227;3;;
113;;;;;;;8302.49;-0.288086;-0.000283966;-0.287018;3;;
115;;;;;;;8302.98;-0.292969;-0.000312683;-0.29187;3;;
117;;;;;;;8303.47;-0.297852;-0.000342896;-0.29715;3;;
119;;;;;;;8303.96;-0.302734;-0.000374481;-0.302063;3;;
121;;;;;;;8304.45;-0.307617;-0.000407471;-0.306885;3;;
123;;;;;;;8304.93;-0.3125;-0.000441498;-0.311798;3;;
125;;;;;;;8305.42;-0.317383;-0.00047644;-0.31665;3;;
127;;;;;;;8305.91;-0.322266;-0.000511475;-0.321564;3;;
129;;;;;;;8306.4;-0.327148;-0.00054657;-0.326447;3;;
131;;;;;;;8306.89;-0.332031;-0.00058136;-0.331238;3;;
133;;;;;;;8307.38;-0.336914;-0.000614624;-0.336151;3;;
135;;;;;;;8307.86;-0.341797;-0.000646362;-0.341064;3;;
137;;;;;;;8308.35;-0.34668;-0.00067627;-0.345917;3;;
139;;;;;;;8308.84;-0.3515625;-0.000703735;-0.350769;3;;
141;;;;;;;8309.33;-0.356445;-0.000728455;-0.355621;3;;
143;;;;;;;8309.82;-0.361328;-0.000750427;-0.360443;3;;
145;;;;;;;8310.31;-0.366211;-0.000768738;-0.365326;3;;
147;;;;;;;8310.79;-0.371094;-0.000783691;-0.370209;3;;
149;;;;;;;8311.28;-0.375977;-0.000794983;-0.375061;3;;
151;;;;;;;8311.77;-0.380859;-0.000802002;-0.379974;3;;
153;;;;;;;8312.26;-0.385742;-0.000805969;-0.384857;3;;
155;;;;;;;8312.75;-0.390625;-0.00080719;-0.389771;3;;
157;;;;;;;8313.23;-0.395508;-0.000805969;-0.394653;3;;
159;;;;;;;8313.72;-0.400391;-0.000803833;-0.399506;3;;
161;;;;;;;8314.21;-0.405273;-0.000802002;-0.404388;3;;
163;;;;;;;8314.7;-0.410156;-0.000800476;-0.409241;3;;
165;;;;;;;8315.19;-0.415039;-0.000800171;-0.414093;3;;
167;;;;;;;8315.68;-0.419922;-0.000800476;-0.419006;3;;
169;;;;;;;8316.16;-0.424805;-0.000802002;-0.423889;3;;
171;;;;;;;8316.65;-0.4296875;-0.000803528;-0.428741;3;;
173;;;;;;;8317.14;-0.43457;-0.000805664;-0.433594;3;;
175;;;;;;;8317.63;-0.439453;-0.000808105;-0.438477;3;;
177;;;;;;;8318.12;-0.444336;-0.000809937;-0.443329;3;;
179;;;;;;;8318.61;-0.449219;-0.000812378;-0.448212;3;;
181;;;;;;;8319.09;-0.454102;-0.000815125;-0.453125;3;;
183;;;;;;;8319.58;-0.458984;-0.000817261;-0.458008;3;;
185;;;;;;;8320.07;-0.463867;-0.0008203125;-0.462799;3;;
187;;;;;;;8320.56;-0.46875;-0.000823364;-0.467743;3;;
189;;;;;;;8321.05;-0.473633;-0.000826416;-0.472626;3;;
191;;;;;;;8321.54;-0.478516;-0.000829468;-0.477417;3;;
193;;;;;;;8322.02;-0.483398;-0.000830994;-0.48233;3;;
195;;;;;;;8322.51;-0.488281;-0.00083313;-0.487244;3;;
197;;;;;;;8323;-0.493164;-0.000834961;-0.492065;3;;
199;;;;;;;8323.49;-0.498047;-0.000837097;-0.497009;3;;
201;;;;;;;8323.98;-0.50293;-0.000839539;-0.501831;3;;
203;;;;;;;8324.47;-0.5078125;-0.00084198;-0.506775;3;;
205;;;;;;;8324.95;-0.512695;-0.000844116;-0.511597;3;;
207;;;;;;;8325.44;-0.517578;-0.000845947;-0.516479;3;;
209;;;;;;;8325.93;-0.522461;-0.000848694;-0.521332;3;;
211;;;;;;;8326.42;-0.527344;-0.000849304;-0.526245;3;;
213;;;;;;;8326.91;-0.532227;-0.000852051;-0.531097;3;;
215;;;;;;;8327.4;-0.537109;-0.000852356;-0.53598;3;;
217;;;;;;;8327.88;-0.541992;-0.000853271;-0.540833;3;;
219;;;;;;;8328.37;-0.546875;-0.000854492;-0.545776;3;;
221;;;;;;;8328.86;-0.551758;-0.000856018;-0.550629;3;;
223;;;;;;;8329.35;-0.556641;-0.000858459;-0.55542;3;;
225;;;;;;;8329.84;-0.561523;-0.00085907;-0.560364;3;;
227;;;;;;;8330.32;-0.566406;-0.000861206;-0.565216;3;;
229;;;;;;;8330.81;-0.571289;-0.000862427;-0.570038;3;;
231;;;;;;;8331.3;-0.576172;-0.000862732;-0.574982;3;;
233;;;;;;;8331.79;-0.581055;-0.000863647;-0.579865;3;;
235;;;;;;;8332.28;-0.5859375;-0.000864868;-0.584686;3;;
237;;;;;;;8332.77;-0.59082;-0.000864563;-0.589569;3;;
239;;;;;;;8333.25;-0.595703;-0.000864868;-0.594452;3;;
241;;;;;;;8333.74;-0.600586;-0.000865784;-0.599304;3;;
243;;;;;;;8334.23;-0.605469;-0.000866699;-0.604156;3;;
245;;;;;;;8334.72;-0.610352;-0.000867004;-0.6091;3;;
247;;;;;;;8335.21;-0.615234;-0.00086792;-0.613983;3;;
249;;;;;;;8335.7;-0.620117;-0.000867615;-0.618896;3;;
251;;;;;;;8336.18;-0.625;-0.000867615;-0.623688;3;;
253;;;;;;;8336.67;-0.629883;-0.000867615;-0.62851;3;;
255;;;;;;;8337.16;-0.634766;-0.000866394;-0.633514;3;;
257;;;;;;;8337.65;-0.639648;-0.000865173;-0.638367;3;;
259;;;;;;;8338.14;-0.644531;-0.000863953;-0.643219;3;;
261;;;;;;;8338.63;-0.649414;-0.000864868;-0.648102;3;;
263;;;;;;;8339.11;-0.654297;-0.000862732;-0.653046;3;;
265;;;;;;;8339.6;-0.65918;-0.000864563;-0.657867;3;;
267;;;;;;;8340.09;-0.6640625;-0.000863037;-0.662811;3;;
269;;;;;;;8340.58;-0.668945;-0.000863037;-0.667633;3;;
271;;;;;;;8341.07;-0.673828;-0.000861816;-0.672516;3;;
273;;;;;;;8341.56;-0.678711;-0.000860901;-0.677429;3;;
275;;;;;;;8342.04;-0.683594;-0.000859375;-0.682312;3;;
277;;;;;;;8342.53;-0.688477;-0.000858154;-0.687225;3;;
279;;;;;;;8343.02;-0.693359;-0.000856323;-0.692047;3;;
281;;;;;;;8343.51;-0.698242;-0.000856323;-0.69693;3;;
283;;;;;;;8344;-0.703125;-0.000856323;-0.701782;3;;
285;;;;;;;8344.48;-0.708008;-0.000854797;-0.706665;3;;
287;;;;;;;8344.97;-0.712891;-0.000855408;-0.711609;3;;
289;;;;;;;8345.46;-0.717773;-0.000854492;-0.716461;3;;
291;;;;;;;8345.95;-0.722656;-0.000852661;-0.721344;3;;
293;;;;;;;8346.44;-0.727539;-0.000852661;-0.726227;3;;
295;;;;;;;8346.93;-0.732422;-0.000852051;-0.73111;3;;
297;;;;;;;8347.41;-0.737305;-0.00085022;-0.736023;3;;
299;;;;;;;8347.9;-0.7421875;-0.00085022;-0.740875;3;;
301;;;;;;;8348.39;-0.74707;-0.00085022;-0.745758;3;;
303;;;;;;;8348.88;-0.751953;-0.000849304;-0.751343;3;;
305;;;;;;;8349.37;-0.756836;-0.000848999;-0.756226;3;;
307;;;;;;;8349.86;-0.761719;-0.000850525;-0.761414;3;;
309;;;;;;;8350.34;-0.766602;-0.000849609;-0.765991;3;;
311;;;;;;;8350.83;-0.771484;-0.000849609;-0.770874;3;;
313;;;;;;;8351.32;-0.776367;-0.000849609;-0.775452;3;;
315;;;;;;;8351.81;-0.78125;-0.000848083;-0.780945;3;;
317;;;;;;;8352.3;-0.786133;-0.000848999;-0.785522;3;;
319;;;;;;;8352.79;-0.791016;-0.000848083;-0.7901;3;;
321;;;;;;;8353.27;-0.795898;-0.000848999;-0.794983;3;;
323;;;;;;;8353.76;-0.800781;-0.000850525;-0.799255;3;;
325;;;;;;;8354.25;-0.805664;-0.00085022;-0.805054;3;;
327;;;;;;;8354.74;-0.810547;-0.000851746;-0.810242;3;;
329;;;;;;;8355.23;-0.81543;-0.000852966;-0.815125;3;;
331;;;;;;;8355.72;-0.8203125;-0.000852966;-0.820007;3;;
333;;;;;;;8356.2;-0.825195;-0.000853882;-0.82489;3;;
335;;;;;;;8356.69;-0.830078;-0.000854187;-0.829468;3;;
337;;;;;;;8357.18;-0.834961;-0.000856018;-0.834351;3;;
339;;;;;;;8357.67;-0.839844;-0.000855713;-0.839233;3;;
341;;;;;;;8358.16;-0.844727;-0.000858459;-0.844116;3;;
343;;;;;;;8358.65;-0.849609;-0.00085968;-0.849304;3;;
345;;;;;;;8359.13;-0.854492;-0.000861816;-0.853577;3;;
347;;;;;;;8359.62;-0.859375;-0.000863037;-0.858459;3;;
349;;;;;;;8360.11;-0.864258;-0.000863647;-0.863342;3;;
351;;;;;;;8360.6;-0.869141;-0.000865173;-0.868225;3;;
353;;;;;;;8361.09;-0.874023;-0.000865173;-0.873413;3;;
355;;;;;;;8361.57;-0.878906;-0.000867004;-0.877991;3;;
357;;;;;;;8362.06;-0.883789;-0.00086792;-0.882874;3;;
359;;;;;;;8362.55;-0.888672;-0.000868835;-0.887756;3;;
361;;;;;;;8363.04;-0.893555;-0.000869751;-0.892639;3;;
363;;;;;;;8363.53;-0.8984375;-0.000871887;-0.897827;3;;
365;;;;;;;8364.02;-0.90332;-0.000872803;-0.90271;3;;
367;;;;;;;8364.5;-0.908203;-0.000872803;-0.907898;3;;
369;;;;;;;8364.99;-0.913086;-0.000873413;-0.91217;3;;
371;;;;;;;8365.48;-0.917969;-0.000873108;-0.917969;3;;
373;;;;;;;8365.97;-0.922852;-0.000872498;-0.922241;3;;
375;;;;;;;8366.46;-0.927734;-0.000872803;-0.927124;3;;
377;;;;;;;8366.95;-0.932617;-0.000873108;-0.932312;3;;
379;;;;;;;8367.43;-0.9375;-0.000871887;-0.93689;3;;
381;;;;;;;8367.92;-0.942383;-0.000871887;-0.941467;3;;
383;;;;;;;8368.41;-0.947266;-0.000872498;-0.94696;3;;
385;;;;;;;8368.9;-0.952148;-0.000871277;-0.951538;3;;
387;;;;;;;8369.39;-0.957031;-0.000872803;-0.956116;3;;
389;;;;;;;8369.88;-0.961914;-0.000872498;-0.961304;3;;
391;;;;;;;8370.36;-0.966797;-0.000869446;-0.966187;3;;
393;;;;;;;8370.85;-0.97168;-0.000870361;-0.971069;3;;
395;;;;;;;8371.34;-0.9765625;-0.000869141;-0.975647;3;;
397;;;;;;;8371.83;-0.981445;-0.000868835;-0.980835;3;;
399;;;;;;;8372.32;-0.986328;-0.000869751;-0.985718;3;;
401;;;;;;;8372.81;-0.991211;-0.000870361;-0.990906;3;;
403;;;;;;;8373.29;-0.996094;-0.000871277;-0.995789;3;;
405;;;;;;;8373.78;-1.00098;-0.000869751;-1.00006;3;;
407;;;;;;;8374.27;-0.996094;-0.000859985;-0.995789;3;;
409;;;;;;;8374.76;-0.991211;-0.000854797;-0.990906;3;;
411;;;;;;;8375.25;-0.986328;-0.000848694;-0.985718;3;;
413;;;;;;;8375.73;-0.981445;-0.000843506;-0.98053;3;;
415;;;;;;;8376.22;-0.9765625;-0.000839539;-0.976257;3;;
417;;;;;;;8376.71;-0.97168;-0.000836792;-0.971069;3;;
419;;;;;;;8377.2;-0.966797;-0.00083374;-0.965881;3;;
421;;;;;;;8377.69;-0.961914;-0.000831604;-0.961304;3;;
423;;;;;;;8378.18;-0.957031;-0.000831909;-0.956421;3;;
425;;;;;;;8378.66;-0.952148;-0.000829163;-0.952148;3;;
427;;;;;;;8379.15;-0.947266;-0.000827332;-0.946655;3;;
429;;;;;;;8379.64;-0.942383;-0.000823669;-0.941772;3;;
431;;;;;;;8380.13;-0.9375;-0.000822449;-0.936279;3;;
433;;;;;;;8380.62;-0.932617;-0.000819092;-0.931702;3;;
435;;;;;;;8381.11;-0.927734;-0.000817261;-0.927734;3;;
437;;;;;;;8381.59;-0.922852;-0.00081543;-0.921936;3;;
439;;;;;;;8382.08;-0.917969;-0.000814514;-0.917358;3;;
441;;;;;;;8382.57;-0.913086;-0.000813599;-0.913086;3;;
443;;;;;;;8383.06;-0.908203;-0.000811462;-0.907288;3;;
445;;;;;;;8383.55;-0.90332;-0.000809937;-0.902405;3;;
447;;;;;;;8384.04;-0.8984375;-0.000808411;-0.897522;3;;
449;;;;;;;8384.52;-0.893555;-0.000807495;-0.892944;3;;
451;;;;;;;8385.01;-0.888672;-0.000805359;-0.887756;3;;
453;;;;;;;8385.5;-0.883789;-0.000804443;-0.882263;3;;
455;;;;;;;8385.99;-0.878906;-0.000801697;-0.878296;3;;
457;;;;;;;8386.48;-0.874023;-0.000801086;-0.873108;3;;
459;;;;;;;8386.97;-0.869141;-0.000800476;-0.86792;3;;
461;;;;;;;8387.45;-0.864258;-0.000798035;-0.863037;3;;
463;;;;;;;8387.94;-0.859375;-0.00079834;-0.858459;3;;
465;;;;;;;8388.43;-0.854492;-0.000797119;-0.853882;3;;
467;;;;;;;8388.92;-0.849609;-0.000796204;-0.849304;3;;
469;;;;;;;8389.41;-0.844727;-0.000794373;-0.843811;3;;
471;;;;;;;8389.9;-0.839844;-0.000794373;-0.838928;3;;
473;;;;;;;8390.38;-0.834961;-0.000791626;-0.834961;3;;
475;;;;;;;8390.87;-0.830078;-0.000791931;-0.828857;3;;
477;;;;;;;8391.36;-0.825195;-0.000795593;-0.82489;3;;
479;;;;;;;8391.85;-0.8203125;-0.000792542;-0.819702;3;;
481;;;;;;;8392.34;-0.81543;-0.000792542;-0.814819;3;;
483;;;;;;;8392.82;-0.810547;-0.000793152;-0.809937;3;;
485;;;;;;;8393.31;-0.805664;-0.000792847;-0.805054;3;;
487;;;;;;;8393.8;-0.800781;-0.000792542;-0.799866;3;;
489;;;;;;;8394.29;-0.795898;-0.000793152;-0.794983;3;;
491;;;;;;;8394.78;-0.791016;-0.000794067;-0.79071;3;;
493;;;;;;;8395.27;-0.786133;-0.000795288;-0.785522;3;;
495;;;;;;;8395.75;-0.78125;-0.000795288;-0.779724;3;;
497;;;;;;;8396.24;-0.776367;-0.000796204;-0.775757;3;;
499;;;;;;;8396.73;-0.771484;-0.000798035;-0.770569;3;;
501;;;;;;;8397.22;-0.766602;-0.000801392;-0.765686;3;;
503;;;;;;;8397.71;-0.761719;-0.000802002;-0.761108;3;;
505;;;;;;;8398.2;-0.756836;-0.000801697;-0.75592;3;;
507;;;;;;;8398.68;-0.751953;-0.000803528;-0.751343;3;;
509;;;;;;;8399.17;-0.74707;-0.000804138;-0.745819;3;;
511;;;;;;;8399.66;-0.7421875;-0.000805664;-0.740875;3;;
513;;;;;;;8400.15;-0.737305;-0.000807495;-0.735992;3;;
515;;;;;;;8400.64;-0.732422;-0.000809631;-0.73111;3;;
517;;;;;;;8401.13;-0.727539;-0.000811462;-0.726227;3;;
519;;;;;;;8401.61;-0.722656;-0.000813293;-0.721405;3;;
521;;;;;;;8402.1;-0.717773;-0.00081665;-0.716492;3;;
523;;;;;;;8402.59;-0.712891;-0.000818787;-0.711548;3;;
525;;;;;;;8403.08;-0.708008;-0.000818176;-0.706696;3;;
527;;;;;;;8403.57;-0.703125;-0.000820007;-0.701782;3;;
529;;;;;;;8404.06;-0.698242;-0.000822754;-0.696869;3;;
531;;;;;;;8404.54;-0.693359;-0.000823669;-0.692108;3;;
533;;;;;;;8405.03;-0.688477;-0.000824585;-0.687134;3;;
535;;;;;;;8405.52;-0.683594;-0.000827332;-0.682281;3;;
537;;;;;;;8406.01;-0.678711;-0.000828857;-0.677399;3;;
539;;;;;;;8406.5;-0.673828;-0.000831299;-0.672546;3;;
541;;;;;;;8406.99;-0.668945;-0.000830994;-0.667694;3;;
543;;;;;;;8407.47;-0.6640625;-0.000832214;-0.662781;3;;
545;;;;;;;8407.96;-0.65918;-0.00083313;-0.657898;3;;
547;;;;;;;8408.45;-0.654297;-0.00083374;-0.653046;3;;
549;;;;;;;8408.94;-0.649414;-0.000834045;-0.648102;3;;
551;;;;;;;8409.43;-0.644531;-0.000834351;-0.64325;3;;
553;;;;;;;8409.91;-0.639648;-0.000835266;-0.638397;3;;
555;;;;;;;8410.4;-0.634766;-0.000836182;-0.633484;3;;
557;;;;;;;8410.89;-0.629883;-0.000835266;-0.628632;3;;
559;;;;;;;8411.38;-0.625;-0.000836792;-0.623749;3;;
561;;;;;;;8411.87;-0.620117;-0.000837097;-0.618835;3;;
563;;;;;;;8412.36;-0.615234;-0.000835876;-0.613922;3;;
565;;;;;;;8412.84;-0.610352;-0.000837097;-0.6091;3;;
567;;;;;;;8413.33;-0.605469;-0.000836182;-0.604156;3;;
569;;;;;;;8413.82;-0.600586;-0.000833435;-0.599335;3;;
571;;;;;;;8414.31;-0.595703;-0.000831909;-0.594421;3;;
573;;;;;;;8414.8;-0.59082;-0.000831299;-0.5896;3;;
575;;;;;;;8415.29;-0.5859375;-0.000831299;-0.584717;3;;
577;;;;;;;8415.77;-0.581055;-0.000830688;-0.579895;3;;
579;;;;;;;8416.26;-0.576172;-0.000829773;-0.574982;3;;
581;;;;;;;8416.75;-0.571289;-0.000829163;-0.570099;3;;
583;;;;;;;8417.24;-0.566406;-0.000825806;-0.565277;3;;
585;;;;;;;8417.73;-0.561523;-0.00082428;-0.560364;3;;
587;;;;;;;8418.22;-0.556641;-0.000822754;-0.555511;3;;
589;;;;;;;8418.7;-0.551758;-0.000821228;-0.550629;3;;
591;;;;;;;8419.19;-0.546875;-0.000821228;-0.545715;3;;
593;;;;;;;8419.68;-0.541992;-0.000819397;-0.540863;3;;
595;;;;;;;8420.17;-0.537109;-0.000818481;-0.53595;3;;
597;;;;;;;8420.66;-0.532227;-0.000817871;-0.531128;3;;
599;;;;;;;8421.15;-0.527344;-0.00081665;-0.526154;3;;
601;;;;;;;8421.63;-0.522461;-0.000814819;-0.521393;3;;
603;;;;;;;8422.12;-0.517578;-0.000812988;-0.516479;3;;
605;;;;;;;8422.61;-0.512695;-0.000810547;-0.511597;3;;
607;;;;;;;8423.1;-0.5078125;-0.000809326;-0.506744;3;;
609;;;;;;;8423.59;-0.50293;-0.000808105;-0.501801;3;;
611;;;;;;;8424.07;-0.498047;-0.00080658;-0.496979;3;;
613;;;;;;;8424.56;-0.493164;-0.000804138;-0.492096;3;;
615;;;;;;;8425.05;-0.488281;-0.000806274;-0.487152;3;;
617;;;;;;;8425.54;-0.483398;-0.000802307;-0.48233;3;;
619;;;;;;;8426.03;-0.478516;-0.000800476;-0.477478;3;;
621;;;;;;;8426.52;-0.473633;-0.000798035;-0.472626;3;;
623;;;;;;;8427;-0.46875;-0.000795288;-0.467682;3;;
625;;;;;;;8427.49;-0.463867;-0.000792236;-0.462891;3;;
627;;;;;;;8427.98;-0.458984;-0.000789795;-0.458008;3;;
629;;;;;;;8428.47;-0.454102;-0.000787659;-0.453125;3;;
631;;;;;;;8428.96;-0.449219;-0.000783997;-0.448242;3;;
633;;;;;;;8429.45;-0.444336;-0.000780029;-0.443329;3;;
635;;;;;;;8429.93;-0.439453;-0.000777283;-0.438416;3;;
637;;;;;;;8430.42;-0.43457;-0.000773315;-0.433594;3;;
639;;;;;;;8430.91;-0.4296875;-0.000768433;-0.428741;3;;
641;;;;;;;8431.4;-0.424805;-0.000762634;-0.423859;3;;
643;;;;;;;8431.89;-0.419922;-0.000756531;-0.419037;3;;
645;;;;;;;8432.38;-0.415039;-0.000749817;-0.414093;3;;
647;;;;;;;8432.86;-0.410156;-0.000741882;-0.409271;3;;
649;;;;;;;8433.35;-0.405273;-0.000733948;-0.404327;3;;
651;;;;;;;8433.84;-0.400391;-0.000724792;-0.399475;3;;
653;;;;;;;8434.33;-0.395508;-0.000715027;-0.394653;3;;
655;;;;;;;8434.82;-0.390625;-0.000704346;-0.38974;3;;
657;;;;;;;8435.31;-0.385742;-0.000691833;-0.384857;3;;
659;;;;;;;8435.79;-0.380859;-0.000678406;-0.380005;3;;
661;;;;;;;8436.28;-0.375977;-0.000663757;-0.375061;3;;
663;;;;;;;8436.77;-0.371094;-0.000647888;-0.370239;3;;
665;;;;;;;8437.26;-0.366211;-0.000631104;-0.365387;3;;
667;;;;;;;8437.75;-0.361328;-0.000613403;-0.360443;3;;
669;;;;;;;8438.24;-0.356445;-0.000594482;-0.355682;3;;
671;;;;;;;8438.72;-0.3515625;-0.000575562;-0.350739;3;;
673;;;;;;;8439.21;-0.34668;-0.00055542;-0.345856;3;;
675;;;;;;;8439.7;-0.341797;-0.000534363;-0.341003;3;;
677;;;;;;;8440.19;-0.336914;-0.000512695;-0.336212;3;;
679;;;;;;;8440.68;-0.332031;-0.000490326;-0.331299;3;;
681;;;;;;;8441.16;-0.327148;-0.000467224;-0.326324;3;;
683;;;;;;;8441.65;-0.322266;-0.000443848;-0.321564;3;;
685;;;;;;;8442.14;-0.317383;-0.000420563;-0.31665;3;;
687;;;;;;;8442.63;-0.3125;-0.000397308;-0.311707;3;;
689;;;;;;;8443.12;-0.307617;-0.000374451;-0.306946;3;;
691;;;;;;;8443.61;-0.302734;-0.000352051;-0.301971;3;;
693;;;;;;;8444.09;-0.297852;-0.000329865;-0.29718;3;;
695;;;;;;;8444.58;-0.292969;-0.000308044;-0.292236;3;;
697;;;;;;;8445.07;-0.288086;-0.000286682;-0.287384;3;;
699;;;;;;;8445.56;-0.283203;-0.000265991;-0.282471;3;;
701;;;;;;;8446.05;-0.27832;-0.000245972;-0.277618;3;;
703;;;;;;;8446.54;-0.2734375;-0.000227081;-0.272797;3;;
705;;;;;;;8447.02;-0.268555;-0.000208984;-0.267914;3;;
707;;;;;;;8447.51;-0.263672;-0.000191986;-0.263062;3;;
709;;;;;;;8448;-0.258789;-0.000176025;-0.258209;3;;
711;;;;;;;8448.49;-0.253906;-0.000161041;-0.253265;3;;
713;;;;;;;8448.98;-0.249023;-0.000146942;-0.248383;3;;
715;;;;;;;8449.47;-0.244141;-0.000133728;-0.243561;3;;
717;;;;;;;8449.95;-0.239258;-0.000121429;-0.238739;3;;
719;;;;;;;8450.44;-0.234375;-0.000109894;-0.233826;3;;
721;;;;;;;8450.93;-0.229492;-9.94568e-05;-0.228943;3;;
723;;;;;;;8451.42;-0.224609;-8.97827e-05;-0.22403;3;;
725;;;;;;;8451.91;-0.219727;-8.09937e-05;-0.219177;3;;
727;;;;;;;8452.4;-0.214844;-7.30591e-05;-0.214233;3;;
729;;;;;;;8452.88;-0.209961;-6.57654e-05;-0.209412;3;;
731;;;;;;;8453.37;-0.205078;-5.91125e-05;-0.204468;3;;
733;;;;;;;8453.86;-0.200195;-5.30396e-05;-0.199615;3;;
735;;;;;;;8454.35;-0.1953125;-4.75861e-05;-0.194794;3;;
737;;;;;;;8454.84;-0.19043;-4.2572e-05;-0.189941;3;;
739;;;;;;;8455.32;-0.185547;-3.79974e-05;-0.185059;3;;
741;;;;;;;8455.81;-0.180664;-3.38776e-05;-0.180206;3;;
743;;;;;;;8456.3;-0.175781;-3.01758e-05;-0.175262;3;;
745;;;;;;;8456.79;-0.170898;-2.68097e-05;-0.170471;3;;
747;;;;;;;8457.28;-0.166016;-2.38281e-05;-0.165527;3;;
749;;;;;;;8457.77;-0.161133;-2.11029e-05;-0.160614;3;;
751;;;;;;;8458.25;-0.15625;-1.86798e-05;-0.155823;3;;
753;;;;;;;8458.74;-0.151367;-1.64398e-05;-0.15097;3;;
755;;;;;;;8459.23;-0.146484;-1.44409e-05;-0.146118;3;;
757;;;;;;;8459.72;-0.141602;-1.2674e-05;-0.141235;3;;
759;;;;;;;8460.21;-0.136719;-1.10382e-05;-0.136322;3;;
761;;;;;;;8460.7;-0.131836;-9.53979e-06;-0.13147;3;;
763;;;;;;;8461.18;-0.126953;-8.22449e-06;-0.126587;3;;
765;;;;;;;8461.67;-0.12207;-7.05261e-06;-0.121674;3;;
767;;;;;;;8462.16;-0.1171875;-5.9967e-06;-0.11673;3;;
769;;;;;;;8462.65;-0.112305;-5.00793e-06;-0.111908;3;;
771;;;;;;;8463.14;-0.107422;-4.14429e-06;-0.107025;3;;
773;;;;;;;8463.63;-0.102539;-3.37585e-06;-0.102142;3;;
775;;;;;;;8464.11;-0.09765625;-2.64679e-06;-0.0973206;3;;
777;;;;;;;8464.6;-0.0927734;-1.96808e-06;-0.0924683;3;;
779;;;;;;;8465.09;-0.0878906;-1.38702e-06;-0.0875854;3;;
781;;;;;;;8465.58;-0.0830078;-8.28552e-07;-0.0827026;3;;
783;;;;;;;8466.07;-0.078125;-3.00293e-07;-0.0777893;3;;
785;;;;;;;8466.56;-0.0732422;1.64795e-07;-0.0729065;3;;
787;;;;;;;8467.04;-0.0683594;5.95398e-07;-0.0681458;3;;
789;;;;;;;8467.53;-0.0634766;1.00281e-06;-0.0633545;3;;
791;;;;;;;8468.02;-0.05859375;1.38458e-06;-0.0585327;3;;
793;;;;;;;8468.51;-0.0537109;1.73828e-06;-0.0536499;3;;
795;;;;;;;8469;-0.0488281;2.09656e-06;-0.0485077;3;;
797;;;;;;;8469.49;-0.0439453;2.36542e-06;-0.0436737;3;;
799;;;;;;;8469.97;-0.0390625;2.66235e-06;-0.0387573;3;;
801;;;;;;;8470.46;-0.0341797;2.90405e-06;-0.0338531;3;;
803;;;;;;;8470.95;-0.0292969;3.12958e-06;-0.0289551;3;;
805;;;;;;;8471.44;-0.0244141;3.3313e-06;-0.0241241;3;;
807;;;;;;;8471.93;-0.01953125;3.50739e-06;-0.0192749;3;;
809;;;;;;;8472.41;-0.0146484;3.67828e-06;-0.0143707;3;;
811;;;;;;;8472.9;-0.009765625;3.81165e-06;-0.00948792;3;;
813;;;;;;;8473.39;-0.00488281;3.91846e-06;-0.00465088;3;;
815;;;;;;;8473.88;0;4.00696e-06;0.000247192;3;;
817;;;;;;;8474.37;0.00488281;4.04358e-06;0.00512085;3;;
819;;;;;;;8474.86;0.009765625;4.0741e-06;0.0100006;3;;
821;;;;;;;8475.34;0.009765625;3.57666e-06;0.00999451;3;;
823;;;;;;;8475.83;0.00488281;2.92877e-06;0.00513;3;;
825;;;;;;;8476.32;0;2.40692e-06;0.000234985;3;;
827;;;;;;;8476.81;-0.00488281;1.99524e-06;-0.00465088;3;;
829;;;;;;;8477.3;-0.009765625;1.67542e-06;-0.00951843;3;;
831;;;;;;;;;;;;;
833;;;;;;;;;;;;;
835;;;;;;;;;;;;;
837;;;;;;;;;;;;;
839;;;;;;;;;;;;;
841;;;;;;;;;;;;;
843;;;;;;;;;;;;;
845;;;;;;;;;;;;;
847;;;;;;;;;;;;;
849;;;;;;;;;;;;;
851;;;;;;;;;;;;;
853;;;;;;;;;;;;;
855;;;;;;;;;;;;;
857;;;;;;;;;;;;;
859;;;;;;;;;;;;;
861;;;;;;;;;;;;;
863;;;;;;;;;;;;;
865;;;;;;;;;;;;;
867;;;;;;;;;;;;;
869;;;;;;;;;;;;;
871;;;;;;;;;;;;;
873;;;;;;;;;;;;;
875;;;;;;;;;;;;;
877;;;;;;;;;;;;;
879;;;;;;;;;;;;;
881;;;;;;;;;;;;;
883;;;;;;;;;;;;;
885;;;;;;;;;;;;;
887;;;;;;;;;;;;;
889;;;;;;;;;;;;;
891;;;;;;;;;;;;;
893;;;;;;;;;;;;;
895;;;;;;;;;;;;;
897;;;;;;;;;;;;;
899;;;;;;;;;;;;;
901;;;;;;;;;;;;;
903;;;;;;;;;;;;;
905;;;;;;;;;;;;;
907;;;;;;;;;;;;;
909;;;;;;;;;;;;;
911;;;;;;;;;;;;;
913;;;;;;;;;;;;;
915;;;;;;;;;;;;;
917;;;;;;;;;;;;;
919;;;;;;;;;;;;;
921;;;;;;;;;;;;;
923;;;;;;;;;;;;;
925;;;;;;;;;;;;;
927;;;;;;;;;;;;;
929;;;;;;;;;;;;;
931;;;;;;;;;;;;;
933;;;;;;;;;;;;;
935;;;;;;;;;;;;;
937;;;;;;;;;;;;;
939;;;;;;;;;;;;;
941;;;;;;;;;;;;;
943;;;;;;;;;;;;;
945;;;;;;;;;;;;;
947;;;;;;;;;;;;;
949;;;;;;;;;;;;;
951;;;;;;;;;;;;;
953;;;;;;;;;;;;;
955;;;;;;;;;;;;;
957;;;;;;;;;;;;;
959;;;;;;;;;;;;;
961;;;;;;;;;;;;;
963;;;;;;;;;;;;;
965;;;;;;;;;;;;;
967;;;;;;;;;;;;;
969;;;;;;;;;;;;;
971;;;;;;;;;;;;;
973;;;;;;;;;;;;;
975;;;;;;;;;;;;;
977;;;;;;;;;;;;;
979;;;;;;;;;;;;;
981;;;;;;;;;;;;;
983;;;;;;;;;;;;;
985;;;;;;;;;;;;;
987;;;;;;;;;;;;;
989;;;;;;;;;;;;;
991;;;;;;;;;;;;;
993;;;;;;;;;;;;;
995;;;;;;;;;;;;;
997;;;;;;;;;;;;;
999;;;;;;;;;;;;;
1001;;;;;;;;;;;;;
1003;;;;;;;;;;;;;
1005;;;;;;;;;;;;;
1007;;;;;;;;;;;;;
1009;;;;;;;;;;;;;
1011;;;;;;;;;;;;;
1013;;;;;;;;;;;;;
1015;;;;;;;;;;;;;
1017;;;;;;;;;;;;;
1019;;;;;;;;;;;;;
1021;;;;;;;;;;;;;
1023;;;;;;;;;;;;;
1025;;;;;;;;;;;;;
1027;;;;;;;;;;;;;
1029;;;;;;;;;;;;;
1031;;;;;;;;;;;;;
1033;;;;;;;;;;;;;
1035;;;;;;;;;;;;;
1037;;;;;;;;;;;;;
1039;;;;;;;;;;;;;
1041;;;;;;;;;;;;;
1043;;;;;;;;;;;;;
1045;;;;;;;;;;;;;
1047;;;;;;;;;;;;;
1049;;;;;;;;;;;;;
1051;;;;;;;;;;;;;
1053;;;;;;;;;;;;;
1055;;;;;;;;;;;;;
1057;;;;;;;;;;;;;
1059;;;;;;;;;;;;;
1061;;;;;;;;;;;;;
1063;;;;;;;;;;;;;
1065;;;;;;;;;;;;;
1067;;;;;;;;;;;;;
1069;;;;;;;;;;;;;
1071;;;;;;;;;;;;;
1073;;;;;;;;;;;;;
1075;;;;;;;;;;;;;
1077;;;;;;;;;;;;;
1079;;;;;;;;;;;;;
1081;;;;;;;;;;;;;
1083;;;;;;;;;;;;;
1085;;;;;;;;;;;;;
1087;;;;;;;;;;;;;
1089;;;;;;;;;;;;;
1091;;;;;;;;;;;;;
1093;;;;;;;;;;;;;
1095;;;;;;;;;;;;;
1097;;;;;;;;;;;;;
1099;;;;;;;;;;;;;
1101;;;;;;;;;;;;;
1103;;;;;;;;;;;;;
1105;;;;;;;;;;;;;
1107;;;;;;;;;;;;;
1109;;;;;;;;;;;;;
1111;;;;;;;;;;;;;
1113;;;;;;;;;;;;;
1115;;;;;;;;;;;;;
1117;;;;;;;;;;;;;
1119;;;;;;;;;;;;;
1121;;;;;;;;;;;;;
1123;;;;;;;;;;;;;
1125;;;;;;;;;;;;;
1127;;;;;;;;;;;;;
1129;;;;;;;;;;;;;
1131;;;;;;;;;;;;;
1133;;;;;;;;;;;;;
1135;;;;;;;;;;;;;
1137;;;;;;;;;;;;;
1139;;;;;;;;;;;;;
1141;;;;;;;;;;;;;
1143;;;;;;;;;;;;;
1145;;;;;;;;;;;;;
1147;;;;;;;;;;;;;
1149;;;;;;;;;;;;;
1151;;;;;;;;;;;;;
1153;;;;;;;;;;;;;
1155;;;;;;;;;;;;;
1157;;;;;;;;;;;;;
1159;;;;;;;;;;;;;
1161;;;;;;;;;;;;;
1163;;;;;;;;;;;;;
1165;;;;;;;;;;;;;
1167;;;;;;;;;;;;;
1169;;;;;;;;;;;;;
1171;;;;;;;;;;;;;
1173;;;;;;;;;;;;;
1175;;;;;;;;;;;;;
1177;;;;;;;;;;;;;
1179;;;;;;;;;;;;;
1181;;;;;;;;;;;;;
1183;;;;;;;;;;;;;
1185;;;;;;;;;;;;;
1187;;;;;;;;;;;;;
1189;;;;;;;;;;;;;
1191;;;;;;;;;;;;;
1193;;;;;;;;;;;;;
1195;;;;;;;;;;;;;
1197;;;;;;;;;;;;;
1199;;;;;;;;;;;;;
1201;;;;;;;;;;;;;
1203;;;;;;;;;;;;;
1205;;;;;;;;;;;;;
1207;;;;;;;;;;;;;
1209;;;;;;;;;;;;;
1211;;;;;;;;;;;;;
1213;;;;;;;;;;;;;
1215;;;;;;;;;;;;;
1217;;;;;;;;;;;;;
1219;;;;;;;;;;;;;
1221;;;;;;;;;;;;;
1223;;;;;;;;;;;;;
1225;;;;;;;;;;;;;
1227;;;;;;;;;;;;;
1229;;;;;;;;;;;;;
1231;;;;;;;;;;;;;
1233;;;;;;;;;;;;;
1235;;;;;;;;;;;;;
1237;;;;;;;;;;;;;
1239;;;;;;;;;;;;;
1241;;;;;;;;;;;;;
1243;;;;;;;;;;;;;
1245;;;;;;;;;;;;;
1247;;;;;;;;;;;;;
1249;;;;;;;;;;;;;
1251;;;;;;;;;;;;;
1253;;;;;;;;;;;;;
1255;;;;;;;;;;;;;
1257;;;;;;;;;;;;;
1259;;;;;;;;;;;;;
1261;;;;;;;;;;;;;
1263;;;;;;;;;;;;;
1265;;;;;;;;;;;;;
1267;;;;;;;;;;;;;
1269;;;;;;;;;;;;;
1271;;;;;;;;;;;;;
1273;;;;;;;;;;;;;
1275;;;;;;;;;;;;;
1277;;;;;;;;;;;;;
1279;;;;;;;;;;;;;
1281;;;;;;;;;;;;;
1283;;;;;;;;;;;;;
1285;;;;;;;;;;;;;
1287;;;;;;;;;;;;;
1289;;;;;;;;;;;;;
1291;;;;;;;;;;;;;
1293;;;;;;;;;;;;;
1295;;;;;;;;;;;;;
1297;;;;;;;;;;;;;
1299;;;;;;;;;;;;;
1301;;;;;;;;;;;;;
1303;;;;;;;;;;;;;
1305;;;;;;;;;;;;;
1307;;;;;;;;;;;;;
1309;;;;;;;;;;;;;
1311;;;;;;;;;;;;;
1313;;;;;;;;;;;;;
1315;;;;;;;;;;;;;
1317;;;;;;;;;;;;;
1319;;;;;;;;;;;;;
1321;;;;;;;;;;;;;
1323;;;;;;;;;;;;;
1325;;;;;;;;;;;;;
1327;;;;;;;;;;;;;
1329;;;;;;;;;;;;;
1331;;;;;;;;;;;;;
1333;;;;;;;;;;;;;
1335;;;;;;;;;;;;;
1337;;;;;;;;;;;;;
1339;;;;;;;;;;;;;
1341;;;;;;;;;;;;;
1343;;;;;;;;;;;;;
1345;;;;;;;;;;;;;
1347;;;;;;;;;;;;;
1349;;;;;;;;;;;;;
1351;;;;;;;;;;;;;
1353;;;;;;;;;;;;;
1355;;;;;;;;;;;;;
1357;;;;;;;;;;;;;
1359;;;;;;;;;;;;;
1361;;;;;;;;;;;;;
1363;;;;;;;;;;;;;
1365;;;;;;;;;;;;;
1367;;;;;;;;;;;;;
1369;;;;;;;;;;;;;
1371;;;;;;;;;;;;;
1373;;;;;;;;;;;;;
1375;;;;;;;;;;;;;
1377;;;;;;;;;;;;;
1379;;;;;;;;;;;;;
1381;;;;;;;;;;;;;
1383;;;;;;;;;;;;;
1385;;;;;;;;;;;;;
1387;;;;;;;;;;;;;
1389;;;;;;;;;;;;;
1391;;;;;;;;;;;;;
1393;;;;;;;;;;;;;
1395;;;;;;;;;;;;;
1397;;;;;;;;;;;;;
1399;;;;;;;;;;;;;
1401;;;;;;;;;;;;;
1403;;;;;;;;;;;;;
1405;;;;;;;;;;;;;
1407;;;;;;;;;;;;;
1409;;;;;;;;;;;;;
1411;;;;;;;;;;;;;
1413;;;;;;;;;;;;;
1415;;;;;;;;;;;;;
1417;;;;;;;;;;;;;
1419;;;;;;;;;;;;;
1421;;;;;;;;;;;;;
1423;;;;;;;;;;;;;
1425;;;;;;;;;;;;;
1427;;;;;;;;;;;;;
1429;;;;;;;;;;;;;
1431;;;;;;;;;;;;;
1433;;;;;;;;;;;;;
1435;;;;;;;;;;;;;
1437;;;;;;;;;;;;;
1439;;;;;;;;;;;;;
1441;;;;;;;;;;;;;
1443;;;;;;;;;;;;;
1445;;;;;;;;;;;;;
1447;;;;;;;;;;;;;
1449;;;;;;;;;;;;;
1451;;;;;;;;;;;;;
1453;;;;;;;;;;;;;
1455;;;;;;;;;;;;;
1457;;;;;;;;;;;;;
1459;;;;;;;;;;;;;
1461;;;;;;;;;;;;;
1463;;;;;;;;;;;;;
1465;;;;;;;;;;;;;
1467;;;;;;;;;;;;;
1469;;;;;;;;;;;;;
1471;;;;;;;;;;;;;
1473;;;;;;;;;;;;;
1475;;;;;;;;;;;;;
1477;;;;;;;;;;;;;
1479;;;;;;;;;;;;;
1481;;;;;;;;;;;;;
1483;;;;;;;;;;;;;
1485;;;;;;;;;;;;;
1487;;;;;;;;;;;;;
1489;;;;;;;;;;;;;
1491;;;;;;;;;;;;;
1493;;;;;;;;;;;;;
1495;;;;;;;;;;;;;
1497;;;;;;;;;;;;;
1499;;;;;;;;;;;;;
1501;;;;;;;;;;;;;
1503;;;;;;;;;;;;;
1505;;;;;;;;;;;;;
1507;;;;;;;;;;;;;
1509;;;;;;;;;;;;;
1511;;;;;;;;;;;;;
1513;;;;;;;;;;;;;
1515;;;;;;;;;;;;;
1517;;;;;;;;;;;;;
1519;;;;;;;;;;;;;
1521;;;;;;;;;;;;;
1523;;;;;;;;;;;;;
1525;;;;;;;;;;;;;
1527;;;;;;;;;;;;;
1529;;;;;;;;;;;;;
1531;;;;;;;;;;;;;
1533;;;;;;;;;;;;;
1535;;;;;;;;;;;;;
1537;;;;;;;;;;;;;
1539;;;;;;;;;;;;;
1541;;;;;;;;;;;;;
1543;;;;;;;;;;;;;
1545;;;;;;;;;;;;;
1547;;;;;;;;;;;;;
1549;;;;;;;;;;;;;
1551;;;;;;;;;;;;;
1553;;;;;;;;;;;;;
1555;;;;;;;;;;;;;
1557;;;;;;;;;;;;;
1559;;;;;;;;;;;;;
1561;;;;;;;;;;;;;
1563;;;;;;;;;;;;;
1565;;;;;;;;;;;;;
1567;;;;;;;;;;;;;
1569;;;;;;;;;;;;;
1571;;;;;;;;;;;;;
1573;;;;;;;;;;;;;
1575;;;;;;;;;;;;;
1577;;;;;;;;;;;;;
1579;;;;;;;;;;;;;
1581;;;;;;;;;;;;;
1583;;;;;;;;;;;;;
1585;;;;;;;;;;;;;
1587;;;;;;;;;;;;;
1589;;;;;;;;;;;;;
1591;;;;;;;;;;;;;
1593;;;;;;;;;;;;;
1595;;;;;;;;;;;;;
1597;;;;;;;;;;;;;
1599;;;;;;;;;;;;;
1601;;;;;;;;;;;;;
1603;;;;;;;;;;;;;
1605;;;;;;;;;;;;;
1607;;;;;;;;;;;;;
1609;;;;;;;;;;;;;
1611;;;;;;;;;;;;;
1613;;;;;;;;;;;;;
1615;;;;;;;;;;;;;
1617;;;;;;;;;;;;;
1619;;;;;;;;;;;;;
1621;;;;;;;;;;;;;
1623;;;;;;;;;;;;;
1625;;;;;;;;;;;;;
1627;;;;;;;;;;;;;
1629;;;;;;;;;;;;;
1631;;;;;;;;;;;;;
1633;;;;;;;;;;;;;
1635;;;;;;;;;;;;;
1637;;;;;;;;;;;;;
1639;;;;;;;;;;;;;
1641;;;;;;;;;;;;;
1643;;;;;;;;;;;;;
1645;;;;;;;;;;;;;
1647;;;;;;;;;;;;;
1649;;;;;;;;;;;;;
1651;;;;;;;;;;;;;
1653;;;;;;;;;;;;;
1655;;;;;;;;;;;;;
1657;;;;;;;;;;;;;
1659;;;;;;;;;;;;;
1661;;;;;;;;;;;;;
1663;;;;;;;;;;;;;
1665;;;;;;;;;;;;;
1667;;;;;;;;;;;;;
1669;;;;;;;;;;;;;
1671;;;;;;;;;;;;;
1673;;;;;;;;;;;;;
1675;;;;;;;;;;;;;
1677;;;;;;;;;;;;;
1679;;;;;;;;;;;;;
1681;;;;;;;;;;;;;
1683;;;;;;;;;;;;;
1685;;;;;;;;;;;;;
1687;;;;;;;;;;;;;
1689;;;;;;;;;;;;;
1691;;;;;;;;;;;;;
1693;;;;;;;;;;;;;
1695;;;;;;;;;;;;;
1697;;;;;;;;;;;;;
1699;;;;;;;;;;;;;
1701;;;;;;;;;;;;;
1703;;;;;;;;;;;;;
1705;;;;;;;;;;;;;
1707;;;;;;;;;;;;;
1709;;;;;;;;;;;;;
1711;;;;;;;;;;;;;
1713;;;;;;;;;;;;;
1715;;;;;;;;;;;;;
1717;;;;;;;;;;;;;
1719;;;;;;;;;;;;;
1721;;;;;;;;;;;;;
1723;;;;;;;;;;;;;
1725;;;;;;;;;;;;;
1727;;;;;;;;;;;;;
1729;;;;;;;;;;;;;
1731;;;;;;;;;;;;;
1733;;;;;;;;;;;;;
1735;;;;;;;;;;;;;
1737;;;;;;;;;;;;;
1739;;;;;;;;;;;;;
1741;;;;;;;;;;;;;
1743;;;;;;;;;;;;;
1745;;;;;;;;;;;;;
1747;;;;;;;;;;;;;
1749;;;;;;;;;;;;;
1751;;;;;;;;;;;;;
1753;;;;;;;;;;;;;
1755;;;;;;;;;;;;;
1757;;;;;;;;;;;;;
1759;;;;;;;;;;;;;
1761;;;;;;;;;;;;;
1763;;;;;;;;;;;;;
1765;;;;;;;;;;;;;
1767;;;;;;;;;;;;;
1769;;;;;;;;;;;;;
1771;;;;;;;;;;;;;
1773;;;;;;;;;;;;;
1775;;;;;;;;;;;;;
1777;;;;;;;;;;;;;
1779;;;;;;;;;;;;;
1781;;;;;;;;;;;;;
1783;;;;;;;;;;;;;
1785;;;;;;;;;;;;;
1787;;;;;;;;;;;;;
1789;;;;;;;;;;;;;
1791;;;;;;;;;;;;;
1793;;;;;;;;;;;;;
1795;;;;;;;;;;;;;
1797;;;;;;;;;;;;;
1799;;;;;;;;;;;;;
1801;;;;;;;;;;;;;
1803;;;;;;;;;;;;;
1805;;;;;;;;;;;;;
1807;;;;;;;;;;;;;
1809;;;;;;;;;;;;;
1811;;;;;;;;;;;;;
1813;;;;;;;;;;;;;
1815;;;;;;;;;;;;;
1817;;;;;;;;;;;;;
1819;;;;;;;;;;;;;
1821;;;;;;;;;;;;;
1823;;;;;;;;;;;;;
1825;;;;;;;;;;;;;
1827;;;;;;;;;;;;;
1829;;;;;;;;;;;;;
1831;;;;;;;;;;;;;
1833;;;;;;;;;;;;;
1835;;;;;;;;;;;;;
1837;;;;;;;;;;;;;
1839;;;;;;;;;;;;;
1841;;;;;;;;;;;;;
1843;;;;;;;;;;;;;
1845;;;;;;;;;;;;;
1847;;;;;;;;;;;;;
1849;;;;;;;;;;;;;
1851;;;;;;;;;;;;;
1853;;;;;;;;;;;;;
1855;;;;;;;;;;;;;
1857;;;;;;;;;;;;;
1859;;;;;;;;;;;;;
1861;;;;;;;;;;;;;
1863;;;;;;;;;;;;;
1865;;;;;;;;;;;;;
1867;;;;;;;;;;;;;
1869;;;;;;;;;;;;;
1871;;;;;;;;;;;;;
1873;;;;;;;;;;;;;
1875;;;;;;;;;;;;;
1877;;;;;;;;;;;;;
1879;;;;;;;;;;;;;
1881;;;;;;;;;;;;;
1883;;;;;;;;;;;;;
1885;;;;;;;;;;;;;
1887;;;;;;;;;;;;;
1889;;;;;;;;;;;;;
1891;;;;;;;;;;;;;
1893;;;;;;;;;;;;;
1895;;;;;;;;;;;;;
1897;;;;;;;;;;;;;
1899;;;;;;;;;;;;;
1901;;;;;;;;;;;;;
1903;;;;;;;;;;;;;
1905;;;;;;;;;;;;;
1907;;;;;;;;;;;;;
1909;;;;;;;;;;;;;
1911;;;;;;;;;;;;;
1913;;;;;;;;;;;;;
1915;;;;;;;;;;;;;
1917;;;;;;;;;;;;;
1919;;;;;;;;;;;;;
1921;;;;;;;;;;;;;
1923;;;;;;;;;;;;;
1925;;;;;;;;;;;;;
1927;;;;;;;;;;;;;
1929;;;;;;;;;;;;;
1931;;;;;;;;;;;;;
1933;;;;;;;;;;;;;
1935;;;;;;;;;;;;;
1937;;;;;;;;;;;;;
1939;;;;;;;;;;;;;
1941;;;;;;;;;;;;;
1943;;;;;;;;;;;;;
1945;;;;;;;;;;;;;
1947;;;;;;;;;;;;;
1949;;;;;;;;;;;;;
1951;;;;;;;;;;;;;
1953;;;;;;;;;;;;;
1955;;;;;;;;;;;;;
1957;;;;;;;;;;;;;
1959;;;;;;;;;;;;;
1961;;;;;;;;;;;;;
1963;;;;;;;;;;;;;
1965;;;;;;;;;;;;;
1967;;;;;;;;;;;;;
1969;;;;;;;;;;;;;
1971;;;;;;;;;;;;;
1973;;;;;;;;;;;;;
1975;;;;;;;;;;;;;
1977;;;;;;;;;;;;;
1979;;;;;;;;;;;;;
1981;;;;;;;;;;;;;
1983;;;;;;;;;;;;;
1985;;;;;;;;;;;;;
1987;;;;;;;;;;;;;
1989;;;;;;;;;;;;;
1991;;;;;;;;;;;;;
1993;;;;;;;;;;;;;
1995;;;;;;;;;;;;;
1997;;;;;;;;;;;;;
1999;;;;;;;;;;;;;
2001;;;;;;;;;;;;;
2003;;;;;;;;;;;;;
2005;;;;;;;;;;;;;
2007;;;;;;;;;;;;;
2009;;;;;;;;;;;;;
2011;;;;;;;;;;;;;
2013;;;;;;;;;;;;;
2015;;;;;;;;;;;;;
2017;;;;;;;;;;;;;
2019;;;;;;;;;;;;;
2021;;;;;;;;;;;;;
2023;;;;;;;;;;;;;
2025;;;;;;;;;;;;;
2027;;;;;;;;;;;;;
2029;;;;;;;;;;;;;
2031;;;;;;;;;;;;;
2033;;;;;;;;;;;;;
2035;;;;;;;;;;;;;
2037;;;;;;;;;;;;;
2039;;;;;;;;;;;;;
2041;;;;;;;;;;;;;
2043;;;;;;;;;;;;;
2045;;;;;;;;;;;;;
2047;;;;;;;;;;;;;
2049;;;;;;;;;;;;;
2051;;;;;;;;;;;;;
2053;;;;;;;;;;;;;
2055;;;;;;;;;;;;;
2057;;;;;;;;;;;;;
2059;;;;;;;;;;;;;
2061;;;;;;;;;;;;;
2063;;;;;;;;;;;;;
2065;;;;;;;;;;;;;
2067;;;;;;;;;;;;;
2069;;;;;;;;;;;;;
2071;;;;;;;;;;;;;
2073;;;;;;;;;;;;;
2075;;;;;;;;;;;;;
2077;;;;;;;;;;;;;
2079;;;;;;;;;;;;;
2081;;;;;;;;;;;;;
2083;;;;;;;;;;;;;
2085;;;;;;;;;;;;;
2087;;;;;;;;;;;;;
2089;;;;;;;;;;;;;
2091;;;;;;;;;;;;;
2093;;;;;;;;;;;;;
2095;;;;;;;;;;;;;
2097;;;;;;;;;;;;;
2099;;;;;;;;;;;;;
2101;;;;;;;;;;;;;
2103;;;;;;;;;;;;;
2105;;;;;;;;;;;;;
2107;;;;;;;;;;;;;
2109;;;;;;;;;;;;;
2111;;;;;;;;;;;;;
2113;;;;;;;;;;;;;
2115;;;;;;;;;;;;;
2117;;;;;;;;;;;;;
2119;;;;;;;;;;;;;
2121;;;;;;;;;;;;;
2123;;;;;;;;;;;;;
2125;;;;;;;;;;;;;
2127;;;;;;;;;;;;;
2129;;;;;;;;;;;;;
2131;;;;;;;;;;;;;
2133;;;;;;;;;;;;;
2135;;;;;;;;;;;;;
2137;;;;;;;;;;;;;
2139;;;;;;;;;;;;;
2141;;;;;;;;;;;;;
2143;;;;;;;;;;;;;
2145;;;;;;;;;;;;;
2147;;;;;;;;;;;;;
2149;;;;;;;;;;;;;
2151;;;;;;;;;;;;;
2153;;;;;;;;;;;;;
2155;;;;;;;;;;;;;
2157;;;;;;;;;;;;;
2159;;;;;;;;;;;;;
2161;;;;;;;;;;;;;
2163;;;;;;;;;;;;;
2165;;;;;;;;;;;;;
2167;;;;;;;;;;;;;
2169;;;;;;;;;;;;;
2171;;;;;;;;;;;;;
2173;;;;;;;;;;;;;
2175;;;;;;;;;;;;;
2177;;;;;;;;;;;;;
2179;;;;;;;;;;;;;
2181;;;;;;;;;;;;;
2183;;;;;;;;;;;;;
2185;;;;;;;;;;;;;
2187;;;;;;;;;;;;;
2189;;;;;;;;;;;;;
2191;;;;;;;;;;;;;
2193;;;;;;;;;;;;;
2195;;;;;;;;;;;;;
2197;;;;;;;;;;;;;
2199;;;;;;;;;;;;;
2201;;;;;;;;;;;;;
2203;;;;;;;;;;;;;
2205;;;;;;;;;;;;;
2207;;;;;;;;;;;;;
2209;;;;;;;;;;;;;
2211;;;;;;;;;;;;;
2213;;;;;;;;;;;;;
2215;;;;;;;;;;;;;
2217;;;;;;;;;;;;;
2219;;;;;;;;;;;;;
2221;;;;;;;;;;;;;
2223;;;;;;;;;;;;;
2225;;;;;;;;;;;;;
2227;;;;;;;;;;;;;
2229;;;;;;;;;;;;;
2231;;;;;;;;;;;;;
2233;;;;;;;;;;;;;
2235;;;;;;;;;;;;;
2237;;;;;;;;;;;;;
2239;;;;;;;;;;;;;
2241;;;;;;;;;;;;;
2243;;;;;;;;;;;;;
2245;;;;;;;;;;;;;
2247;;;;;;;;;;;;;
2249;;;;;;;;;;;;;
2251;;;;;;;;;;;;;
2253;;;;;;;;;;;;;
2255;;;;;;;;;;;;;
2257;;;;;;;;;;;;;
2259;;;;;;;;;;;;;
2261;;;;;;;;;;;;;
2263;;;;;;;;;;;;;
2265;;;;;;;;;;;;;
2267;;;;;;;;;;;;;
2269;;;;;;;;;;;;;
2271;;;;;;;;;;;;;
2273;;;;;;;;;;;;;
2275;;;;;;;;;;;;;
2277;;;;;;;;;;;;;
2279;;;;;;;;;;;;;
2281;;;;;;;;;;;;;
2283;;;;;;;;;;;;;
2285;;;;;;;;;;;;;
2287;;;;;;;;;;;;;
2289;;;;;;;;;;;;;
2291;;;;;;;;;;;;;
2293;;;;;;;;;;;;;
2295;;;;;;;;;;;;;
2297;;;;;;;;;;;;;
2299;;;;;;;;;;;;;
2301;;;;;;;;;;;;;
2303;;;;;;;;;;;;;
2305;;;;;;;;;;;;;
2307;;;;;;;;;;;;;
2309;;;;;;;;;;;;;
2311;;;;;;;;;;;;;
2313;;;;;;;;;;;;;
2315;;;;;;;;;;;;;
2317;;;;;;;;;;;;;
2319;;;;;;;;;;;;;
2321;;;;;;;;;;;;;
2323;;;;;;;;;;;;;
2325;;;;;;;;;;;;;
2327;;;;;;;;;;;;;
2329;;;;;;;;;;;;;
2331;;;;;;;;;;;;;
2333;;;;;;;;;;;;;
2335;;;;;;;;;;;;;
2337;;;;;;;;;;;;;
2339;;;;;;;;;;;;;
2341;;;;;;;;;;;;;
2343;;;;;;;;;;;;;
2345;;;;;;;;;;;;;
2347;;;;;;;;;;;;;
2349;;;;;;;;;;;;;
2351;;;;;;;;;;;;;
2353;;;;;;;;;;;;;
2355;;;;;;;;;;;;;
2357;;;;;;;;;;;;;
2359;;;;;;;;;;;;;
2361;;;;;;;;;;;;;
2363;;;;;;;;;;;;;
2365;;;;;;;;;;;;;
2367;;;;;;;;;;;;;
2369;;;;;;;;;;;;;
2371;;;;;;;;;;;;;
2373;;;;;;;;;;;;;
2375;;;;;;;;;;;;;
2377;;;;;;;;;;;;;
2379;;;;;;;;;;;;;
2381;;;;;;;;;;;;;
2383;;;;;;;;;;;;;
2385;;;;;;;;;;;;;
2387;;;;;;;;;;;;;
2389;;;;;;;;;;;;;
2391;;;;;;;;;;;;;
2393;;;;;;;;;;;;;
2395;;;;;;;;;;;;;
2397;;;;;;;;;;;;;
2399;;;;;;;;;;;;;
2401;;;;;;;;;;;;;
2403;;;;;;;;;;;;;
2405;;;;;;;;;;;;;
2407;;;;;;;;;;;;;
2409;;;;;;;;;;;;;
2411;;;;;;;;;;;;;
2413;;;;;;;;;;;;;
2415;;;;;;;;;;;;;
2417;;;;;;;;;;;;;
2419;;;;;;;;;;;;;
2421;;;;;;;;;;;;;
2423;;;;;;;;;;;;;
2425;;;;;;;;;;;;;
2427;;;;;;;;;;;;;
2429;;;;;;;;;;;;;
2431;;;;;;;;;;;;;
2433;;;;;;;;;;;;;
2435;;;;;;;;;;;;;
2437;;;;;;;;;;;;;
2439;;;;;;;;;;;;;
2441;;;;;;;;;;;;;
2443;;;;;;;;;;;;;
2445;;;;;;;;;;;;;
2447;;;;;;;;;;;;;
2449;;;;;;;;;;;;;
2451;;;;;;;;;;;;;
2453;;;;;;;;;;;;;
2455;;;;;;;;;;;;;
2457;;;;;;;;;;;;;
2459;;;;;;;;;;;;;
2461;;;;;;;;;;;;;
2463;;;;;;;;;;;;;
2465;;;;;;;;;;;;;
2467;;;;;;;;;;;;;
2469;;;;;;;;;;;;;
2471;;;;;;;;;;;;;
2473;;;;;;;;;;;;;
2475;;;;;;;;;;;;;
2477;;;;;;;;;;;;;
2479;;;;;;;;;;;;;
2481;;;;;;;;;;;;;
2483;;;;;;;;;;;;;
2485;;;;;;;;;;;;;
2487;;;;;;;;;;;;;
2489;;;;;;;;;;;;;
2491;;;;;;;;;;;;;
2493;;;;;;;;;;;;;
2495;;;;;;;;;;;;;