File: carbon_superP/O2_1000rpm.txt
Index;Column 2 (V);Column 3 (V);Column 4 (V);Column 5 (V);Column 6 (V/s);Column 7 (V);Time (s);Potential applied (V);WE(1).Current (A);WE(1).Potential (V);Scan;Column 13 (RPM);ω (rad/s)
1;0.1;0.11;-0.9;-0.01;0.01;-0.00244;10384.4;-0.014801;-9.65576e-07;-0.0144562;3;1000;104.72
3;;;;;;;10384.9;-0.0196838;-1.74744e-06;-0.0193787;3;;
5;;;;;;;10385.4;-0.0245667;-3.0069e-06;-0.0242126;3;;
7;;;;;;;10385.9;-0.0294495;-4.96521e-06;-0.0291138;3;;
9;;;;;;;10386.3;-0.0343323;-8.01697e-06;-0.0339905;3;;
11;;;;;;;10386.8;-0.0392151;-1.2619e-05;-0.0388397;3;;
13;;;;;;;10387.3;-0.0440979;-1.94153e-05;-0.0437012;3;;
15;;;;;;;10387.8;-0.0489807;-2.90039e-05;-0.0485474;3;;
17;;;;;;;10388.3;-0.0538635;-4.20013e-05;-0.0535278;3;;
19;;;;;;;10388.8;-0.0587463;-5.87769e-05;-0.0584106;3;;
21;;;;;;;10389.3;-0.0636292;-7.95288e-05;-0.0632935;3;;
23;;;;;;;10389.8;-0.068512;-0.000104248;-0.0681152;3;;
25;;;;;;;10390.2;-0.0733948;-0.000132629;-0.0729065;3;;
27;;;;;;;10390.7;-0.0782776;-0.000164307;-0.0778198;3;;
29;;;;;;;10391.2;-0.0831604;-0.000198608;-0.0826111;3;;
31;;;;;;;10391.7;-0.0880432;-0.000234955;-0.0874023;3;;
33;;;;;;;10392.2;-0.092926;-0.000272766;-0.0922241;3;;
35;;;;;;;10392.7;-0.0978088;-0.000311371;-0.0970459;3;;
37;;;;;;;10393.2;-0.102692;-0.000350281;-0.102264;3;;
39;;;;;;;10393.7;-0.107574;-0.000388916;-0.107178;3;;
41;;;;;;;10394.2;-0.112457;-0.000426392;-0.11203;3;;
43;;;;;;;10394.6;-0.11734;-0.0004617;-0.116882;3;;
45;;;;;;;10395.1;-0.122223;-0.000494171;-0.121735;3;;
47;;;;;;;10395.6;-0.127106;-0.000522461;-0.126648;3;;
49;;;;;;;10396.1;-0.131989;-0.00054657;-0.131531;3;;
51;;;;;;;10396.6;-0.136871;-0.000565186;-0.136353;3;;
53;;;;;;;10397.1;-0.141754;-0.000578918;-0.141296;3;;
55;;;;;;;10397.6;-0.146637;-0.000588074;-0.146149;3;;
57;;;;;;;10398.1;-0.15152;-0.000594788;-0.151031;3;;
59;;;;;;;10398.5;-0.156403;-0.000601807;-0.155853;3;;
61;;;;;;;10399;-0.161285;-0.000609131;-0.160767;3;;
63;;;;;;;10399.5;-0.166168;-0.000617065;-0.165619;3;;
65;;;;;;;10400;-0.171051;-0.000624084;-0.170532;3;;
67;;;;;;;10400.5;-0.175934;-0.000630798;-0.175323;3;;
69;;;;;;;10401;-0.180817;-0.000638123;-0.180237;3;;
71;;;;;;;10401.5;-0.185699;-0.000643921;-0.185089;3;;
73;;;;;;;10402;-0.190582;-0.000649109;-0.190002;3;;
75;;;;;;;10402.5;-0.195465;-0.000655212;-0.194855;3;;
77;;;;;;;10402.9;-0.200348;-0.000661011;-0.199768;3;;
79;;;;;;;10403.4;-0.205231;-0.000664673;-0.20462;3;;
81;;;;;;;10403.9;-0.210114;-0.000668945;-0.209442;3;;
83;;;;;;;10404.4;-0.214996;-0.000672607;-0.214355;3;;
85;;;;;;;10404.9;-0.219879;-0.000675964;-0.219208;3;;
87;;;;;;;10405.4;-0.224762;-0.000679016;-0.224091;3;;
89;;;;;;;10405.9;-0.229645;-0.000681152;-0.228973;3;;
91;;;;;;;10406.4;-0.234528;-0.00068573;-0.233856;3;;
93;;;;;;;10406.8;-0.23941;-0.000688171;-0.238739;3;;
95;;;;;;;10407.3;-0.244293;-0.000689392;-0.243622;3;;
97;;;;;;;10407.8;-0.249176;-0.000691223;-0.248566;3;;
99;;;;;;;10408.3;-0.254059;-0.000692749;-0.253357;3;;
101;;;;;;;10408.8;-0.258942;-0.000694885;-0.258209;3;;
103;;;;;;;10409.3;-0.263824;-0.000696716;-0.263031;3;;
105;;;;;;;10409.8;-0.268707;-0.000699158;-0.267975;3;;
107;;;;;;;10410.3;-0.27359;-0.000700989;-0.272797;3;;
109;;;;;;;10410.8;-0.278473;-0.000701904;-0.277679;3;;
111;;;;;;;10411.2;-0.283356;-0.000702209;-0.282501;3;;
113;;;;;;;10411.7;-0.288239;-0.000704956;-0.287384;3;;
115;;;;;;;10412.2;-0.293121;-0.000704956;-0.292267;3;;
117;;;;;;;10412.7;-0.298004;-0.000706177;-0.29718;3;;
119;;;;;;;10413.2;-0.302887;-0.000708313;-0.302094;3;;
121;;;;;;;10413.7;-0.30777;-0.000708618;-0.306946;3;;
123;;;;;;;10414.2;-0.312653;-0.000709534;-0.311829;3;;
125;;;;;;;10414.7;-0.317535;-0.000710754;-0.31665;3;;
127;;;;;;;10415.2;-0.322418;-0.000711365;-0.321564;3;;
129;;;;;;;10415.6;-0.327301;-0.00071106;-0.326477;3;;
131;;;;;;;10416.1;-0.332184;-0.000712891;-0.331299;3;;
133;;;;;;;10416.6;-0.337067;-0.000714722;-0.336243;3;;
135;;;;;;;10417.1;-0.341949;-0.000710754;-0.341095;3;;
137;;;;;;;10417.6;-0.346832;-0.000713806;-0.345978;3;;
139;;;;;;;10418.1;-0.351715;-0.000715332;-0.3508;3;;
141;;;;;;;10418.6;-0.356598;-0.000717773;-0.355743;3;;
143;;;;;;;10419.1;-0.361481;-0.000716858;-0.360596;3;;
145;;;;;;;10419.5;-0.366364;-0.000717468;-0.365448;3;;
147;;;;;;;10420;-0.371246;-0.000718689;-0.370331;3;;
149;;;;;;;10420.5;-0.376129;-0.000718994;-0.375214;3;;
151;;;;;;;10421;-0.381012;-0.000719299;-0.380096;3;;
153;;;;;;;10421.5;-0.385895;-0.000718994;-0.384918;3;;
155;;;;;;;10422;-0.390778;-0.000718994;-0.389832;3;;
157;;;;;;;10422.5;-0.39566;-0.000720215;-0.394653;3;;
159;;;;;;;10423;-0.400543;-0.00072113;-0.399597;3;;
161;;;;;;;10423.5;-0.405426;-0.000722656;-0.404449;3;;
163;;;;;;;10423.9;-0.410309;-0.000722351;-0.409332;3;;
165;;;;;;;10424.4;-0.415192;-0.000722656;-0.414246;3;;
167;;;;;;;10424.9;-0.420074;-0.000722046;-0.419067;3;;
169;;;;;;;10425.4;-0.424957;-0.000723572;-0.42395;3;;
171;;;;;;;10425.9;-0.42984;-0.000724487;-0.428833;3;;
173;;;;;;;10426.4;-0.434723;-0.000726013;-0.433685;3;;
175;;;;;;;10426.9;-0.439606;-0.000725403;-0.438568;3;;
177;;;;;;;10427.4;-0.444489;-0.000725403;-0.44339;3;;
179;;;;;;;10427.8;-0.449371;-0.000726318;-0.448395;3;;
181;;;;;;;10428.3;-0.454254;-0.000725708;-0.453217;3;;
183;;;;;;;10428.8;-0.459137;-0.000727539;-0.458038;3;;
185;;;;;;;10429.3;-0.46402;-0.000727844;-0.462921;3;;
187;;;;;;;10429.8;-0.468903;-0.000726929;-0.467804;3;;
189;;;;;;;10430.3;-0.473785;-0.000727844;-0.472656;3;;
191;;;;;;;10430.8;-0.478668;-0.000727844;-0.4776;3;;
193;;;;;;;10431.3;-0.483551;-0.00072876;-0.482391;3;;
195;;;;;;;10431.8;-0.488434;-0.000729065;-0.487305;3;;
197;;;;;;;10432.2;-0.493317;-0.000729065;-0.4921875;3;;
199;;;;;;;10432.7;-0.498199;-0.00072998;-0.49707;3;;
201;;;;;;;10433.2;-0.503082;-0.000730286;-0.501953;3;;
203;;;;;;;10433.7;-0.507965;-0.000731506;-0.506805;3;;
205;;;;;;;10434.2;-0.512848;-0.000731201;-0.511688;3;;
207;;;;;;;10434.7;-0.517731;-0.000730286;-0.516541;3;;
209;;;;;;;10435.2;-0.522614;-0.000730896;-0.521423;3;;
211;;;;;;;10435.7;-0.527496;-0.000732117;-0.526306;3;;
213;;;;;;;10436.1;-0.532379;-0.000734253;-0.531158;3;;
215;;;;;;;10436.6;-0.537262;-0.000736694;-0.536041;3;;
217;;;;;;;10437.1;-0.542145;-0.000736694;-0.540955;3;;
219;;;;;;;10437.6;-0.547028;-0.000736389;-0.545837;3;;
221;;;;;;;10438.1;-0.55191;-0.000737305;-0.55069;3;;
223;;;;;;;10438.6;-0.556793;-0.000737305;-0.555573;3;;
225;;;;;;;10439.1;-0.561676;-0.000738831;-0.560486;3;;
227;;;;;;;10439.6;-0.566559;-0.000739746;-0.565338;3;;
229;;;;;;;10440.1;-0.571442;-0.000741577;-0.57019;3;;
231;;;;;;;10440.5;-0.576324;-0.0007421875;-0.575073;3;;
233;;;;;;;10441;-0.581207;-0.000741882;-0.579987;3;;
235;;;;;;;10441.5;-0.58609;-0.000743713;-0.584778;3;;
237;;;;;;;10442;-0.590973;-0.000744629;-0.589661;3;;
239;;;;;;;10442.5;-0.595856;-0.00074585;-0.594513;3;;
241;;;;;;;10443;-0.600739;-0.000747375;-0.599426;3;;
243;;;;;;;10443.5;-0.605621;-0.000748596;-0.604248;3;;
245;;;;;;;10444;-0.610504;-0.000748291;-0.609161;3;;
247;;;;;;;10444.4;-0.615387;-0.000749817;-0.614014;3;;
249;;;;;;;10444.9;-0.62027;-0.000751038;-0.618927;3;;
251;;;;;;;10445.4;-0.625153;-0.000751953;-0.623779;3;;
253;;;;;;;10445.9;-0.630035;-0.000753174;-0.628693;3;;
255;;;;;;;10446.4;-0.634918;-0.000754089;-0.633545;3;;
257;;;;;;;10446.9;-0.639801;-0.00075592;-0.638397;3;;
259;;;;;;;10447.4;-0.644684;-0.00075592;-0.643341;3;;
261;;;;;;;10447.9;-0.649567;-0.000758972;-0.648193;3;;
263;;;;;;;10448.4;-0.654449;-0.000758972;-0.653107;3;;
265;;;;;;;10448.8;-0.659332;-0.000758362;-0.657959;3;;
267;;;;;;;10449.3;-0.664215;-0.000758667;-0.662872;3;;
269;;;;;;;10449.8;-0.669098;-0.000760193;-0.667725;3;;
271;;;;;;;10450.3;-0.673981;-0.000760803;-0.672638;3;;
273;;;;;;;10450.8;-0.678864;-0.000761719;-0.677521;3;;
275;;;;;;;10451.3;-0.683746;-0.000763245;-0.682373;3;;
277;;;;;;;10451.8;-0.688629;-0.00076416;-0.687256;3;;
279;;;;;;;10452.3;-0.693512;-0.000764465;-0.692078;3;;
281;;;;;;;10452.7;-0.698395;-0.000765991;-0.697021;3;;
283;;;;;;;10453.2;-0.703278;-0.000764465;-0.701874;3;;
285;;;;;;;10453.7;-0.70816;-0.000764465;-0.706757;3;;
287;;;;;;;10454.2;-0.713043;-0.000765076;-0.71167;3;;
289;;;;;;;10454.7;-0.717926;-0.00076416;-0.716553;3;;
291;;;;;;;10455.2;-0.722809;-0.000766296;-0.721405;3;;
293;;;;;;;10455.7;-0.727692;-0.000765076;-0.726318;3;;
295;;;;;;;10456.2;-0.732574;-0.000765381;-0.731201;3;;
297;;;;;;;10456.7;-0.737457;-0.000766602;-0.736084;3;;
299;;;;;;;10457.1;-0.74234;-0.000767212;-0.740967;3;;
301;;;;;;;10457.6;-0.747223;-0.000766296;-0.745819;3;;
303;;;;;;;10458.1;-0.752106;-0.000764771;-0.751343;3;;
305;;;;;;;10458.6;-0.756989;-0.000767212;-0.756226;3;;
307;;;;;;;10459.1;-0.761871;-0.000765076;-0.760803;3;;
309;;;;;;;10459.6;-0.766754;-0.000766296;-0.765381;3;;
311;;;;;;;10460.1;-0.771637;-0.000766296;-0.770874;3;;
313;;;;;;;10460.6;-0.77652;-0.000765686;-0.775757;3;;
315;;;;;;;10461;-0.781403;-0.000765076;-0.780334;3;;
317;;;;;;;10461.5;-0.786285;-0.000764465;-0.785522;3;;
319;;;;;;;10462;-0.791168;-0.000761108;-0.791016;3;;
321;;;;;;;10462.5;-0.796051;-0.000762939;-0.795898;3;;
323;;;;;;;10463;-0.800934;-0.00076355;-0.800171;3;;
325;;;;;;;10463.5;-0.805817;-0.000762024;-0.804749;3;;
327;;;;;;;10464;-0.810699;-0.000761108;-0.809937;3;;
329;;;;;;;10464.5;-0.815582;-0.000760193;-0.814819;3;;
331;;;;;;;10465;-0.820465;-0.000758972;-0.8203125;3;;
333;;;;;;;10465.4;-0.825348;-0.000758667;-0.82489;3;;
335;;;;;;;10465.9;-0.830231;-0.00075531;-0.829163;3;;
337;;;;;;;10466.4;-0.835114;-0.000756226;-0.834045;3;;
339;;;;;;;10466.9;-0.839996;-0.00075592;-0.839233;3;;
341;;;;;;;10467.4;-0.844879;-0.000753784;-0.844421;3;;
343;;;;;;;10467.9;-0.849762;-0.000751953;-0.848694;3;;
345;;;;;;;10468.4;-0.854645;-0.000751343;-0.853882;3;;
347;;;;;;;10468.9;-0.859528;-0.000749817;-0.858459;3;;
349;;;;;;;10469.3;-0.86441;-0.000749207;-0.863342;3;;
351;;;;;;;10469.8;-0.869293;-0.000748291;-0.868835;3;;
353;;;;;;;10470.3;-0.874176;-0.00074707;-0.873413;3;;
355;;;;;;;10470.8;-0.879059;-0.000745544;-0.877991;3;;
357;;;;;;;10471.3;-0.883942;-0.000743408;-0.883179;3;;
359;;;;;;;10471.8;-0.888824;-0.000742493;-0.888367;3;;
361;;;;;;;10472.3;-0.893707;-0.000740967;-0.892944;3;;
363;;;;;;;10472.8;-0.89859;-0.000739746;-0.897522;3;;
365;;;;;;;10473.3;-0.89859;-0.000738525;-0.897827;3;;
367;;;;;;;10473.7;-0.893707;-0.000739441;-0.892944;3;;
369;;;;;;;10474.2;-0.888824;-0.000738831;-0.888062;3;;
371;;;;;;;10474.7;-0.883942;-0.000739441;-0.883789;3;;
373;;;;;;;10475.2;-0.879059;-0.000739136;-0.878296;3;;
375;;;;;;;10475.7;-0.874176;-0.000740051;-0.873108;3;;
377;;;;;;;10476.2;-0.869293;-0.000741882;-0.86853;3;;
379;;;;;;;10476.7;-0.86441;-0.000741577;-0.863342;3;;
381;;;;;;;10477.2;-0.859528;-0.000743103;-0.858459;3;;
383;;;;;;;10477.7;-0.854645;-0.000744934;-0.853577;3;;
385;;;;;;;10478.1;-0.849762;-0.00074646;-0.848694;3;;
387;;;;;;;10478.6;-0.844879;-0.000747375;-0.844116;3;;
389;;;;;;;10479.1;-0.839996;-0.00074707;-0.838928;3;;
391;;;;;;;10479.6;-0.835114;-0.000747986;-0.834351;3;;
393;;;;;;;10480.1;-0.830231;-0.000748291;-0.829468;3;;
395;;;;;;;10480.6;-0.825348;-0.000750122;-0.824585;3;;
397;;;;;;;10481.1;-0.820465;-0.000751038;-0.819397;3;;
399;;;;;;;10481.6;-0.815582;-0.000751343;-0.815125;3;;
401;;;;;;;10482;-0.810699;-0.000752869;-0.809326;3;;
403;;;;;;;10482.5;-0.805817;-0.000752563;-0.804443;3;;
405;;;;;;;10483;-0.800934;-0.000753174;-0.799561;3;;
407;;;;;;;10483.5;-0.796051;-0.000752869;-0.794678;3;;
409;;;;;;;10484;-0.791168;-0.000753784;-0.7901;3;;
411;;;;;;;10484.5;-0.786285;-0.00075531;-0.785522;3;;
413;;;;;;;10485;-0.781403;-0.0007547;-0.780334;3;;
415;;;;;;;10485.5;-0.77652;-0.000755615;-0.775757;3;;
417;;;;;;;10486;-0.771637;-0.000753479;-0.770874;3;;
419;;;;;;;10486.4;-0.766754;-0.00075531;-0.765991;3;;
421;;;;;;;10486.9;-0.761871;-0.000756531;-0.760193;3;;
423;;;;;;;10487.4;-0.756989;-0.00075531;-0.75592;3;;
425;;;;;;;10487.9;-0.752106;-0.000755615;-0.751343;3;;
427;;;;;;;10488.4;-0.747223;-0.00075592;-0.745819;3;;
429;;;;;;;10488.9;-0.74234;-0.000756531;-0.740936;3;;
431;;;;;;;10489.4;-0.737457;-0.00075592;-0.736023;3;;
433;;;;;;;10489.9;-0.732574;-0.000755615;-0.731201;3;;
435;;;;;;;10490.3;-0.727692;-0.00075531;-0.726288;3;;
437;;;;;;;10490.8;-0.722809;-0.0007547;-0.721405;3;;
439;;;;;;;10491.3;-0.717926;-0.000754395;-0.716522;3;;
441;;;;;;;10491.8;-0.713043;-0.0007547;-0.71167;3;;
443;;;;;;;10492.3;-0.70816;-0.0007547;-0.706787;3;;
445;;;;;;;10492.8;-0.703278;-0.000754089;-0.701904;3;;
447;;;;;;;10493.3;-0.698395;-0.000753784;-0.697021;3;;
449;;;;;;;10493.8;-0.693512;-0.000752869;-0.692169;3;;
451;;;;;;;10494.3;-0.688629;-0.000751648;-0.687256;3;;
453;;;;;;;10494.7;-0.683746;-0.000751038;-0.682343;3;;
455;;;;;;;10495.2;-0.678864;-0.000750427;-0.67749;3;;
457;;;;;;;10495.7;-0.673981;-0.000749512;-0.672638;3;;
459;;;;;;;10496.2;-0.669098;-0.000749207;-0.667725;3;;
461;;;;;;;10496.7;-0.664215;-0.000747681;-0.662842;3;;
463;;;;;;;10497.2;-0.659332;-0.000747375;-0.65799;3;;
465;;;;;;;10497.7;-0.654449;-0.00074707;-0.653046;3;;
467;;;;;;;10498.2;-0.649567;-0.00074707;-0.648163;3;;
469;;;;;;;10498.6;-0.644684;-0.000744934;-0.643372;3;;
471;;;;;;;10499.1;-0.639801;-0.000744324;-0.638458;3;;
473;;;;;;;10499.6;-0.634918;-0.000743713;-0.633545;3;;
475;;;;;;;10500.1;-0.630035;-0.000743103;-0.628723;3;;
477;;;;;;;10500.6;-0.625153;-0.000741882;-0.623779;3;;
479;;;;;;;10501.1;-0.62027;-0.000740662;-0.618927;3;;
481;;;;;;;10501.6;-0.615387;-0.000739441;-0.613983;3;;
483;;;;;;;10502.1;-0.610504;-0.00073822;-0.609131;3;;
485;;;;;;;10502.6;-0.605621;-0.00073761;-0.60434;3;;
487;;;;;;;10503;-0.600739;-0.000737915;-0.599396;3;;
489;;;;;;;10503.5;-0.595856;-0.000736694;-0.594513;3;;
491;;;;;;;10504;-0.590973;-0.000736694;-0.589691;3;;
493;;;;;;;10504.5;-0.58609;-0.000734253;-0.584778;3;;
495;;;;;;;10505;-0.581207;-0.000733948;-0.579926;3;;
497;;;;;;;10505.5;-0.576324;-0.000732422;-0.575073;3;;
499;;;;;;;10506;-0.571442;-0.000730591;-0.570251;3;;
501;;;;;;;10506.5;-0.566559;-0.00072998;-0.565308;3;;
503;;;;;;;10506.9;-0.561676;-0.000730591;-0.560455;3;;
505;;;;;;;10507.4;-0.556793;-0.00072876;-0.555603;3;;
507;;;;;;;10507.9;-0.55191;-0.00072937;-0.55072;3;;
509;;;;;;;10508.4;-0.547028;-0.000726013;-0.545807;3;;
511;;;;;;;10508.9;-0.542145;-0.000727234;-0.540924;3;;
513;;;;;;;10509.4;-0.537262;-0.000726318;-0.536102;3;;
515;;;;;;;10509.9;-0.532379;-0.000725098;-0.531158;3;;
517;;;;;;;10510.4;-0.527496;-0.000725708;-0.526306;3;;
519;;;;;;;10510.9;-0.522614;-0.000725098;-0.521423;3;;
521;;;;;;;10511.3;-0.517731;-0.000724487;-0.516541;3;;
523;;;;;;;10511.8;-0.512848;-0.000723877;-0.511688;3;;
525;;;;;;;10512.3;-0.507965;-0.000722961;-0.506775;3;;
527;;;;;;;10512.8;-0.503082;-0.000723572;-0.501923;3;;
529;;;;;;;10513.3;-0.498199;-0.000723267;-0.49707;3;;
531;;;;;;;10513.8;-0.493317;-0.000721741;-0.4921875;3;;
533;;;;;;;10514.3;-0.488434;-0.000722351;-0.487244;3;;
535;;;;;;;10514.8;-0.483551;-0.000720825;-0.482422;3;;
537;;;;;;;10515.2;-0.478668;-0.00071991;-0.477539;3;;
539;;;;;;;10515.7;-0.473785;-0.000719604;-0.472687;3;;
541;;;;;;;10516.2;-0.468903;-0.00071991;-0.467773;3;;
543;;;;;;;10516.7;-0.46402;-0.000719604;-0.462921;3;;
545;;;;;;;10517.2;-0.459137;-0.000719299;-0.458008;3;;
547;;;;;;;10517.7;-0.454254;-0.000719299;-0.453186;3;;
549;;;;;;;10518.2;-0.449371;-0.000718994;-0.448334;3;;
551;;;;;;;10518.7;-0.444489;-0.000716248;-0.44342;3;;
553;;;;;;;10519.2;-0.439606;-0.000716553;-0.438538;3;;
555;;;;;;;10519.6;-0.434723;-0.000716553;-0.433746;3;;
557;;;;;;;10520.1;-0.42984;-0.000717468;-0.428833;3;;
559;;;;;;;10520.6;-0.424957;-0.000715637;-0.424011;3;;
561;;;;;;;10521.1;-0.420074;-0.000715942;-0.419037;3;;
563;;;;;;;10521.6;-0.415192;-0.000715637;-0.414154;3;;
565;;;;;;;10522.1;-0.410309;-0.000716248;-0.409332;3;;
567;;;;;;;10522.6;-0.405426;-0.000715332;-0.40448;3;;
569;;;;;;;10523.1;-0.400543;-0.000711975;-0.399536;3;;
571;;;;;;;10523.5;-0.39566;-0.000713501;-0.394745;3;;
573;;;;;;;10524;-0.390778;-0.000713501;-0.389832;3;;
575;;;;;;;10524.5;-0.385895;-0.000713196;-0.384888;3;;
577;;;;;;;10525;-0.381012;-0.000712585;-0.380096;3;;
579;;;;;;;10525.5;-0.376129;-0.000711365;-0.375183;3;;
581;;;;;;;10526;-0.371246;-0.000711975;-0.370331;3;;
583;;;;;;;10526.5;-0.366364;-0.000710754;-0.365448;3;;
585;;;;;;;10527;-0.361481;-0.000710144;-0.360596;3;;
587;;;;;;;10527.5;-0.356598;-0.000709839;-0.355743;3;;
589;;;;;;;10527.9;-0.351715;-0.000710144;-0.3508;3;;
591;;;;;;;10528.4;-0.346832;-0.000708313;-0.345947;3;;
593;;;;;;;10528.9;-0.341949;-0.000707397;-0.341095;3;;
595;;;;;;;10529.4;-0.337067;-0.000706177;-0.336243;3;;
597;;;;;;;10529.9;-0.332184;-0.000706482;-0.331329;3;;
599;;;;;;;10530.4;-0.327301;-0.000704956;-0.326447;3;;
601;;;;;;;10530.9;-0.322418;-0.000704956;-0.321594;3;;
603;;;;;;;10531.4;-0.317535;-0.000706177;-0.316742;3;;
605;;;;;;;10531.8;-0.312653;-0.000704956;-0.311859;3;;
607;;;;;;;10532.3;-0.30777;-0.000703125;-0.306946;3;;
609;;;;;;;10532.8;-0.302887;-0.000700989;-0.302094;3;;
611;;;;;;;10533.3;-0.298004;-0.000699463;-0.297241;3;;
613;;;;;;;10533.8;-0.293121;-0.000698853;-0.292328;3;;
615;;;;;;;10534.3;-0.288239;-0.000697937;-0.287445;3;;
617;;;;;;;10534.8;-0.283356;-0.000697632;-0.282593;3;;
619;;;;;;;10535.3;-0.278473;-0.000696411;-0.27771;3;;
621;;;;;;;10535.8;-0.27359;-0.000694885;-0.272827;3;;
623;;;;;;;10536.2;-0.268707;-0.000693359;-0.267975;3;;
625;;;;;;;10536.7;-0.263824;-0.000690918;-0.263062;3;;
627;;;;;;;10537.2;-0.258942;-0.000690308;-0.25824;3;;
629;;;;;;;10537.7;-0.254059;-0.000689392;-0.253326;3;;
631;;;;;;;10538.2;-0.249176;-0.000686646;-0.248444;3;;
633;;;;;;;10538.7;-0.244293;-0.000685425;-0.243561;3;;
635;;;;;;;10539.2;-0.23941;-0.000683289;-0.238739;3;;
637;;;;;;;10539.7;-0.234528;-0.000681152;-0.233887;3;;
639;;;;;;;10540.2;-0.229645;-0.00067749;-0.228973;3;;
641;;;;;;;10540.6;-0.224762;-0.000674744;-0.22406;3;;
643;;;;;;;10541.1;-0.219879;-0.000672607;-0.219238;3;;
645;;;;;;;10541.6;-0.214996;-0.000668335;-0.214386;3;;
647;;;;;;;10542.1;-0.210114;-0.000665894;-0.209473;3;;
649;;;;;;;10542.6;-0.205231;-0.000661926;-0.204529;3;;
651;;;;;;;10543.1;-0.200348;-0.000657959;-0.199707;3;;
653;;;;;;;10543.6;-0.195465;-0.000653076;-0.194824;3;;
655;;;;;;;10544.1;-0.190582;-0.000646973;-0.189972;3;;
657;;;;;;;10544.5;-0.185699;-0.000640564;-0.185089;3;;
659;;;;;;;10545;-0.180817;-0.000632935;-0.180237;3;;
661;;;;;;;10545.5;-0.175934;-0.000626221;-0.175354;3;;
663;;;;;;;10546;-0.171051;-0.00061554;-0.170441;3;;
665;;;;;;;10546.5;-0.166168;-0.000605164;-0.165619;3;;
667;;;;;;;10547;-0.161285;-0.000592957;-0.160706;3;;
669;;;;;;;10547.5;-0.156403;-0.000578918;-0.155884;3;;
671;;;;;;;10548;-0.15152;-0.000563354;-0.151001;3;;
673;;;;;;;10548.5;-0.146637;-0.000545044;-0.146118;3;;
675;;;;;;;10548.9;-0.141754;-0.000524597;-0.141235;3;;
677;;;;;;;10549.4;-0.136871;-0.000502319;-0.136383;3;;
679;;;;;;;10549.9;-0.131989;-0.000478119;-0.1315;3;;
681;;;;;;;10550.4;-0.127106;-0.000451691;-0.126587;3;;
683;;;;;;;10550.9;-0.122223;-0.000423248;-0.121765;3;;
685;;;;;;;10551.4;-0.11734;-0.000393372;-0.116882;3;;
687;;;;;;;10551.9;-0.112457;-0.000362244;-0.11203;3;;
689;;;;;;;10552.4;-0.107574;-0.00033017;-0.107086;3;;
691;;;;;;;10552.8;-0.102692;-0.000297607;-0.102295;3;;
693;;;;;;;10553.3;-0.0978088;-0.000264893;-0.0974121;3;;
695;;;;;;;10553.8;-0.092926;-0.000232361;-0.0925293;3;;
697;;;;;;;10554.3;-0.0880432;-0.000200684;-0.087677;3;;
699;;;;;;;10554.8;-0.0831604;-0.000170227;-0.0827942;3;;
701;;;;;;;10555.3;-0.0782776;-0.000141571;-0.0779114;3;;
703;;;;;;;10555.8;-0.0733948;-0.000115082;-0.0730896;3;;
705;;;;;;;10556.3;-0.068512;-9.1156e-05;-0.0681458;3;;
707;;;;;;;10556.8;-0.0636292;-7.01294e-05;-0.0632935;3;;
709;;;;;;;10557.2;-0.0587463;-5.22461e-05;-0.0584106;3;;
711;;;;;;;10557.7;-0.0538635;-3.77136e-05;-0.0535583;3;;
713;;;;;;;10558.2;-0.0489807;-2.62085e-05;-0.0485962;3;;
715;;;;;;;10558.7;-0.0440979;-1.75537e-05;-0.0437286;3;;
717;;;;;;;10559.2;-0.0392151;-1.12946e-05;-0.038858;3;;
719;;;;;;;10559.7;-0.0343323;-6.92444e-06;-0.0339996;3;;
721;;;;;;;10560.2;-0.0294495;-3.96545e-06;-0.0291229;3;;
723;;;;;;;10560.7;-0.0245667;-2.02515e-06;-0.0242249;3;;
725;;;;;;;10561.1;-0.0196838;-7.60803e-07;-0.0193665;3;;
727;;;;;;;10561.6;-0.014801;2.7771e-08;-0.014505;3;;
729;;;;;;;10562.1;-0.00991821;5.28564e-07;-0.00962219;3;;
731;;;;;;;10562.6;-0.0050354;8.37708e-07;-0.00476685;3;;
733;;;;;;;10563.1;-0.000152588;1.02783e-06;0.000112915;3;;
735;;;;;;;10563.6;0.00473022;1.15997e-06;0.00501709;3;;
737;;;;;;;10564.1;0.00961304;1.23596e-06;0.00988464;3;;
739;;;;;;;10564.6;0.0144958;1.297e-06;0.0147644;3;;
741;;;;;;;10565.1;0.0193787;1.34125e-06;0.0196503;3;;
743;;;;;;;10565.5;0.0242615;1.37146e-06;0.0245819;3;;
745;;;;;;;10566;0.0291443;1.38947e-06;0.0294159;3;;
747;;;;;;;10566.5;0.0340271;1.40564e-06;0.034314;3;;
749;;;;;;;10567;0.0389099;1.42029e-06;0.0391998;3;;
751;;;;;;;10567.5;0.0437927;1.45294e-06;0.0440399;3;;
753;;;;;;;10568;0.0486755;1.47888e-06;0.0488861;3;;
755;;;;;;;10568.5;0.0535583;1.49353e-06;0.0534973;3;;
757;;;;;;;10569;0.0584412;1.51581e-06;0.0583496;3;;
759;;;;;;;10569.4;0.063324;1.53503e-06;0.063324;3;;
761;;;;;;;10569.9;0.0682068;1.55579e-06;0.0681458;3;;
763;;;;;;;10570.4;0.0730896;1.58905e-06;0.072998;3;;
765;;;;;;;10570.9;0.0779724;1.62018e-06;0.0778198;3;;
767;;;;;;;10571.4;0.0828552;1.65527e-06;0.0827637;3;;
769;;;;;;;10571.9;0.087738;1.69006e-06;0.0877075;3;;
771;;;;;;;10572.4;0.0926208;1.73187e-06;0.0925598;3;;
773;;;;;;;10572.9;0.0975037;1.77185e-06;0.0975037;3;;
775;;;;;;;10573.4;0.102386;1.80786e-06;0.102356;3;;
777;;;;;;;10573.8;0.107269;1.86615e-06;0.107239;3;;
779;;;;;;;10574.3;0.112152;1.9278e-06;0.11203;3;;
781;;;;;;;10574.8;0.107269;1.56921e-06;0.107269;3;;
783;;;;;;;10575.3;0.102386;1.3858e-06;0.102386;3;;
785;;;;;;;10575.8;0.0975037;1.24512e-06;0.0975037;3;;
787;;;;;;;10576.3;0.0926208;1.13739e-06;0.0925903;3;;
789;;;;;;;10576.8;0.087738;1.04614e-06;0.087738;3;;
791;;;;;;;10577.3;0.0828552;9.75952e-07;0.0828857;3;;
793;;;;;;;10577.7;0.0779724;9.07898e-07;0.0779724;3;;
795;;;;;;;10578.2;0.0730896;8.56018e-07;0.0730591;3;;
797;;;;;;;10578.7;0.0682068;8.05054e-07;0.0682373;3;;
799;;;;;;;10579.2;0.063324;7.46155e-07;0.0634155;3;;
801;;;;;;;10579.7;0.0584412;7.05566e-07;0.0585022;3;;
803;;;;;;;10580.2;0.0535583;6.62537e-07;0.0535889;3;;
805;;;;;;;10580.7;0.0486755;6.21643e-07;0.0489563;3;;
807;;;;;;;10581.2;0.0437927;5.81055e-07;0.0440399;3;;
809;;;;;;;10581.7;0.0389099;5.6427e-07;0.0391571;3;;
811;;;;;;;10582.1;0.0340271;5.24902e-07;0.0343201;3;;
813;;;;;;;10582.6;0.0291443;4.84314e-07;0.0294495;3;;
815;;;;;;;10583.1;0.0242615;4.52881e-07;0.0245178;3;;
817;;;;;;;10583.6;0.0193787;4.0741e-07;0.0196625;3;;
819;;;;;;;10584.1;0.0144958;3.48511e-07;0.0147858;3;;
821;;;;;;;10584.6;0.00961304;2.82593e-07;0.00991821;3;;
823;;;;;;;10585.1;0.00473022;2.05994e-07;0.00495605;3;;
825;;;;;;;10585.6;-0.000152588;7.2937e-08;0.000146484;3;;
827;;;;;;;10586;-0.0050354;-1.27686e-07;-0.00472717;3;;
829;;;;;;;10586.5;-0.00991821;-4.3396e-07;-0.00960083;3;;
831;;;;;;;;;;;;;
833;;;;;;;;;;;;;
835;;;;;;;;;;;;;
837;;;;;;;;;;;;;
839;;;;;;;;;;;;;
841;;;;;;;;;;;;;
843;;;;;;;;;;;;;
845;;;;;;;;;;;;;
847;;;;;;;;;;;;;
849;;;;;;;;;;;;;
851;;;;;;;;;;;;;
853;;;;;;;;;;;;;
855;;;;;;;;;;;;;
857;;;;;;;;;;;;;
859;;;;;;;;;;;;;
861;;;;;;;;;;;;;
863;;;;;;;;;;;;;
865;;;;;;;;;;;;;
867;;;;;;;;;;;;;
869;;;;;;;;;;;;;
871;;;;;;;;;;;;;
873;;;;;;;;;;;;;
875;;;;;;;;;;;;;
877;;;;;;;;;;;;;
879;;;;;;;;;;;;;
881;;;;;;;;;;;;;
883;;;;;;;;;;;;;
885;;;;;;;;;;;;;
887;;;;;;;;;;;;;
889;;;;;;;;;;;;;
891;;;;;;;;;;;;;
893;;;;;;;;;;;;;
895;;;;;;;;;;;;;
897;;;;;;;;;;;;;
899;;;;;;;;;;;;;
901;;;;;;;;;;;;;
903;;;;;;;;;;;;;
905;;;;;;;;;;;;;
907;;;;;;;;;;;;;
909;;;;;;;;;;;;;
911;;;;;;;;;;;;;
913;;;;;;;;;;;;;
915;;;;;;;;;;;;;
917;;;;;;;;;;;;;
919;;;;;;;;;;;;;
921;;;;;;;;;;;;;
923;;;;;;;;;;;;;
925;;;;;;;;;;;;;
927;;;;;;;;;;;;;
929;;;;;;;;;;;;;
931;;;;;;;;;;;;;
933;;;;;;;;;;;;;
935;;;;;;;;;;;;;
937;;;;;;;;;;;;;
939;;;;;;;;;;;;;
941;;;;;;;;;;;;;
943;;;;;;;;;;;;;
945;;;;;;;;;;;;;
947;;;;;;;;;;;;;
949;;;;;;;;;;;;;
951;;;;;;;;;;;;;
953;;;;;;;;;;;;;
955;;;;;;;;;;;;;
957;;;;;;;;;;;;;
959;;;;;;;;;;;;;
961;;;;;;;;;;;;;
963;;;;;;;;;;;;;
965;;;;;;;;;;;;;
967;;;;;;;;;;;;;
969;;;;;;;;;;;;;
971;;;;;;;;;;;;;
973;;;;;;;;;;;;;
975;;;;;;;;;;;;;
977;;;;;;;;;;;;;
979;;;;;;;;;;;;;
981;;;;;;;;;;;;;
983;;;;;;;;;;;;;
985;;;;;;;;;;;;;
987;;;;;;;;;;;;;
989;;;;;;;;;;;;;
991;;;;;;;;;;;;;
993;;;;;;;;;;;;;
995;;;;;;;;;;;;;
997;;;;;;;;;;;;;
999;;;;;;;;;;;;;
1001;;;;;;;;;;;;;
1003;;;;;;;;;;;;;
1005;;;;;;;;;;;;;
1007;;;;;;;;;;;;;
1009;;;;;;;;;;;;;
1011;;;;;;;;;;;;;
1013;;;;;;;;;;;;;
1015;;;;;;;;;;;;;
1017;;;;;;;;;;;;;
1019;;;;;;;;;;;;;
1021;;;;;;;;;;;;;
1023;;;;;;;;;;;;;
1025;;;;;;;;;;;;;
1027;;;;;;;;;;;;;
1029;;;;;;;;;;;;;
1031;;;;;;;;;;;;;
1033;;;;;;;;;;;;;
1035;;;;;;;;;;;;;
1037;;;;;;;;;;;;;
1039;;;;;;;;;;;;;
1041;;;;;;;;;;;;;
1043;;;;;;;;;;;;;
1045;;;;;;;;;;;;;
1047;;;;;;;;;;;;;
1049;;;;;;;;;;;;;
1051;;;;;;;;;;;;;
1053;;;;;;;;;;;;;
1055;;;;;;;;;;;;;
1057;;;;;;;;;;;;;
1059;;;;;;;;;;;;;
1061;;;;;;;;;;;;;
1063;;;;;;;;;;;;;
1065;;;;;;;;;;;;;
1067;;;;;;;;;;;;;
1069;;;;;;;;;;;;;
1071;;;;;;;;;;;;;
1073;;;;;;;;;;;;;
1075;;;;;;;;;;;;;
1077;;;;;;;;;;;;;
1079;;;;;;;;;;;;;
1081;;;;;;;;;;;;;
1083;;;;;;;;;;;;;
1085;;;;;;;;;;;;;
1087;;;;;;;;;;;;;
1089;;;;;;;;;;;;;
1091;;;;;;;;;;;;;
1093;;;;;;;;;;;;;
1095;;;;;;;;;;;;;
1097;;;;;;;;;;;;;
1099;;;;;;;;;;;;;
1101;;;;;;;;;;;;;
1103;;;;;;;;;;;;;
1105;;;;;;;;;;;;;
1107;;;;;;;;;;;;;
1109;;;;;;;;;;;;;
1111;;;;;;;;;;;;;
1113;;;;;;;;;;;;;
1115;;;;;;;;;;;;;
1117;;;;;;;;;;;;;
1119;;;;;;;;;;;;;
1121;;;;;;;;;;;;;
1123;;;;;;;;;;;;;
1125;;;;;;;;;;;;;
1127;;;;;;;;;;;;;
1129;;;;;;;;;;;;;
1131;;;;;;;;;;;;;
1133;;;;;;;;;;;;;
1135;;;;;;;;;;;;;
1137;;;;;;;;;;;;;
1139;;;;;;;;;;;;;
1141;;;;;;;;;;;;;
1143;;;;;;;;;;;;;
1145;;;;;;;;;;;;;
1147;;;;;;;;;;;;;
1149;;;;;;;;;;;;;
1151;;;;;;;;;;;;;
1153;;;;;;;;;;;;;
1155;;;;;;;;;;;;;
1157;;;;;;;;;;;;;
1159;;;;;;;;;;;;;
1161;;;;;;;;;;;;;
1163;;;;;;;;;;;;;
1165;;;;;;;;;;;;;
1167;;;;;;;;;;;;;
1169;;;;;;;;;;;;;
1171;;;;;;;;;;;;;
1173;;;;;;;;;;;;;
1175;;;;;;;;;;;;;
1177;;;;;;;;;;;;;
1179;;;;;;;;;;;;;
1181;;;;;;;;;;;;;
1183;;;;;;;;;;;;;
1185;;;;;;;;;;;;;
1187;;;;;;;;;;;;;
1189;;;;;;;;;;;;;
1191;;;;;;;;;;;;;
1193;;;;;;;;;;;;;
1195;;;;;;;;;;;;;
1197;;;;;;;;;;;;;
1199;;;;;;;;;;;;;
1201;;;;;;;;;;;;;
1203;;;;;;;;;;;;;
1205;;;;;;;;;;;;;
1207;;;;;;;;;;;;;
1209;;;;;;;;;;;;;
1211;;;;;;;;;;;;;
1213;;;;;;;;;;;;;
1215;;;;;;;;;;;;;
1217;;;;;;;;;;;;;
1219;;;;;;;;;;;;;
1221;;;;;;;;;;;;;
1223;;;;;;;;;;;;;
1225;;;;;;;;;;;;;
1227;;;;;;;;;;;;;
1229;;;;;;;;;;;;;
1231;;;;;;;;;;;;;
1233;;;;;;;;;;;;;
1235;;;;;;;;;;;;;
1237;;;;;;;;;;;;;
1239;;;;;;;;;;;;;
1241;;;;;;;;;;;;;
1243;;;;;;;;;;;;;
1245;;;;;;;;;;;;;
1247;;;;;;;;;;;;;
1249;;;;;;;;;;;;;
1251;;;;;;;;;;;;;
1253;;;;;;;;;;;;;
1255;;;;;;;;;;;;;
1257;;;;;;;;;;;;;
1259;;;;;;;;;;;;;
1261;;;;;;;;;;;;;
1263;;;;;;;;;;;;;
1265;;;;;;;;;;;;;
1267;;;;;;;;;;;;;
1269;;;;;;;;;;;;;
1271;;;;;;;;;;;;;
1273;;;;;;;;;;;;;
1275;;;;;;;;;;;;;
1277;;;;;;;;;;;;;
1279;;;;;;;;;;;;;
1281;;;;;;;;;;;;;
1283;;;;;;;;;;;;;
1285;;;;;;;;;;;;;
1287;;;;;;;;;;;;;
1289;;;;;;;;;;;;;
1291;;;;;;;;;;;;;
1293;;;;;;;;;;;;;
1295;;;;;;;;;;;;;
1297;;;;;;;;;;;;;
1299;;;;;;;;;;;;;
1301;;;;;;;;;;;;;
1303;;;;;;;;;;;;;
1305;;;;;;;;;;;;;
1307;;;;;;;;;;;;;
1309;;;;;;;;;;;;;
1311;;;;;;;;;;;;;
1313;;;;;;;;;;;;;
1315;;;;;;;;;;;;;
1317;;;;;;;;;;;;;
1319;;;;;;;;;;;;;
1321;;;;;;;;;;;;;
1323;;;;;;;;;;;;;
1325;;;;;;;;;;;;;
1327;;;;;;;;;;;;;
1329;;;;;;;;;;;;;
1331;;;;;;;;;;;;;
1333;;;;;;;;;;;;;
1335;;;;;;;;;;;;;
1337;;;;;;;;;;;;;
1339;;;;;;;;;;;;;
1341;;;;;;;;;;;;;
1343;;;;;;;;;;;;;
1345;;;;;;;;;;;;;
1347;;;;;;;;;;;;;
1349;;;;;;;;;;;;;
1351;;;;;;;;;;;;;
1353;;;;;;;;;;;;;
1355;;;;;;;;;;;;;
1357;;;;;;;;;;;;;
1359;;;;;;;;;;;;;
1361;;;;;;;;;;;;;
1363;;;;;;;;;;;;;
1365;;;;;;;;;;;;;
1367;;;;;;;;;;;;;
1369;;;;;;;;;;;;;
1371;;;;;;;;;;;;;
1373;;;;;;;;;;;;;
1375;;;;;;;;;;;;;
1377;;;;;;;;;;;;;
1379;;;;;;;;;;;;;
1381;;;;;;;;;;;;;
1383;;;;;;;;;;;;;
1385;;;;;;;;;;;;;
1387;;;;;;;;;;;;;
1389;;;;;;;;;;;;;
1391;;;;;;;;;;;;;
1393;;;;;;;;;;;;;
1395;;;;;;;;;;;;;
1397;;;;;;;;;;;;;
1399;;;;;;;;;;;;;
1401;;;;;;;;;;;;;
1403;;;;;;;;;;;;;
1405;;;;;;;;;;;;;
1407;;;;;;;;;;;;;
1409;;;;;;;;;;;;;
1411;;;;;;;;;;;;;
1413;;;;;;;;;;;;;
1415;;;;;;;;;;;;;
1417;;;;;;;;;;;;;
1419;;;;;;;;;;;;;
1421;;;;;;;;;;;;;
1423;;;;;;;;;;;;;
1425;;;;;;;;;;;;;
1427;;;;;;;;;;;;;
1429;;;;;;;;;;;;;
1431;;;;;;;;;;;;;
1433;;;;;;;;;;;;;
1435;;;;;;;;;;;;;
1437;;;;;;;;;;;;;
1439;;;;;;;;;;;;;
1441;;;;;;;;;;;;;
1443;;;;;;;;;;;;;
1445;;;;;;;;;;;;;
1447;;;;;;;;;;;;;
1449;;;;;;;;;;;;;
1451;;;;;;;;;;;;;
1453;;;;;;;;;;;;;
1455;;;;;;;;;;;;;
1457;;;;;;;;;;;;;
1459;;;;;;;;;;;;;
1461;;;;;;;;;;;;;
1463;;;;;;;;;;;;;
1465;;;;;;;;;;;;;
1467;;;;;;;;;;;;;
1469;;;;;;;;;;;;;
1471;;;;;;;;;;;;;
1473;;;;;;;;;;;;;
1475;;;;;;;;;;;;;
1477;;;;;;;;;;;;;
1479;;;;;;;;;;;;;
1481;;;;;;;;;;;;;
1483;;;;;;;;;;;;;
1485;;;;;;;;;;;;;
1487;;;;;;;;;;;;;
1489;;;;;;;;;;;;;
1491;;;;;;;;;;;;;
1493;;;;;;;;;;;;;
1495;;;;;;;;;;;;;
1497;;;;;;;;;;;;;
1499;;;;;;;;;;;;;
1501;;;;;;;;;;;;;
1503;;;;;;;;;;;;;
1505;;;;;;;;;;;;;
1507;;;;;;;;;;;;;
1509;;;;;;;;;;;;;
1511;;;;;;;;;;;;;
1513;;;;;;;;;;;;;
1515;;;;;;;;;;;;;
1517;;;;;;;;;;;;;
1519;;;;;;;;;;;;;
1521;;;;;;;;;;;;;
1523;;;;;;;;;;;;;
1525;;;;;;;;;;;;;
1527;;;;;;;;;;;;;
1529;;;;;;;;;;;;;
1531;;;;;;;;;;;;;
1533;;;;;;;;;;;;;
1535;;;;;;;;;;;;;
1537;;;;;;;;;;;;;
1539;;;;;;;;;;;;;
1541;;;;;;;;;;;;;
1543;;;;;;;;;;;;;
1545;;;;;;;;;;;;;
1547;;;;;;;;;;;;;
1549;;;;;;;;;;;;;
1551;;;;;;;;;;;;;
1553;;;;;;;;;;;;;
1555;;;;;;;;;;;;;
1557;;;;;;;;;;;;;
1559;;;;;;;;;;;;;
1561;;;;;;;;;;;;;
1563;;;;;;;;;;;;;
1565;;;;;;;;;;;;;
1567;;;;;;;;;;;;;
1569;;;;;;;;;;;;;
1571;;;;;;;;;;;;;
1573;;;;;;;;;;;;;
1575;;;;;;;;;;;;;
1577;;;;;;;;;;;;;
1579;;;;;;;;;;;;;
1581;;;;;;;;;;;;;
1583;;;;;;;;;;;;;
1585;;;;;;;;;;;;;
1587;;;;;;;;;;;;;
1589;;;;;;;;;;;;;
1591;;;;;;;;;;;;;
1593;;;;;;;;;;;;;
1595;;;;;;;;;;;;;
1597;;;;;;;;;;;;;
1599;;;;;;;;;;;;;
1601;;;;;;;;;;;;;
1603;;;;;;;;;;;;;
1605;;;;;;;;;;;;;
1607;;;;;;;;;;;;;
1609;;;;;;;;;;;;;
1611;;;;;;;;;;;;;
1613;;;;;;;;;;;;;
1615;;;;;;;;;;;;;
1617;;;;;;;;;;;;;
1619;;;;;;;;;;;;;
1621;;;;;;;;;;;;;
1623;;;;;;;;;;;;;
1625;;;;;;;;;;;;;
1627;;;;;;;;;;;;;
1629;;;;;;;;;;;;;
1631;;;;;;;;;;;;;
1633;;;;;;;;;;;;;
1635;;;;;;;;;;;;;
1637;;;;;;;;;;;;;
1639;;;;;;;;;;;;;
1641;;;;;;;;;;;;;
1643;;;;;;;;;;;;;
1645;;;;;;;;;;;;;
1647;;;;;;;;;;;;;
1649;;;;;;;;;;;;;
1651;;;;;;;;;;;;;
1653;;;;;;;;;;;;;
1655;;;;;;;;;;;;;
1657;;;;;;;;;;;;;
1659;;;;;;;;;;;;;
1661;;;;;;;;;;;;;
1663;;;;;;;;;;;;;
1665;;;;;;;;;;;;;
1667;;;;;;;;;;;;;
1669;;;;;;;;;;;;;
1671;;;;;;;;;;;;;
1673;;;;;;;;;;;;;
1675;;;;;;;;;;;;;
1677;;;;;;;;;;;;;
1679;;;;;;;;;;;;;
1681;;;;;;;;;;;;;
1683;;;;;;;;;;;;;
1685;;;;;;;;;;;;;
1687;;;;;;;;;;;;;
1689;;;;;;;;;;;;;
1691;;;;;;;;;;;;;
1693;;;;;;;;;;;;;
1695;;;;;;;;;;;;;
1697;;;;;;;;;;;;;
1699;;;;;;;;;;;;;
1701;;;;;;;;;;;;;
1703;;;;;;;;;;;;;
1705;;;;;;;;;;;;;
1707;;;;;;;;;;;;;
1709;;;;;;;;;;;;;
1711;;;;;;;;;;;;;
1713;;;;;;;;;;;;;
1715;;;;;;;;;;;;;
1717;;;;;;;;;;;;;
1719;;;;;;;;;;;;;
1721;;;;;;;;;;;;;
1723;;;;;;;;;;;;;
1725;;;;;;;;;;;;;
1727;;;;;;;;;;;;;
1729;;;;;;;;;;;;;
1731;;;;;;;;;;;;;
1733;;;;;;;;;;;;;
1735;;;;;;;;;;;;;
1737;;;;;;;;;;;;;
1739;;;;;;;;;;;;;
1741;;;;;;;;;;;;;
1743;;;;;;;;;;;;;
1745;;;;;;;;;;;;;
1747;;;;;;;;;;;;;
1749;;;;;;;;;;;;;
1751;;;;;;;;;;;;;
1753;;;;;;;;;;;;;
1755;;;;;;;;;;;;;
1757;;;;;;;;;;;;;
1759;;;;;;;;;;;;;
1761;;;;;;;;;;;;;
1763;;;;;;;;;;;;;
1765;;;;;;;;;;;;;
1767;;;;;;;;;;;;;
1769;;;;;;;;;;;;;
1771;;;;;;;;;;;;;
1773;;;;;;;;;;;;;
1775;;;;;;;;;;;;;
1777;;;;;;;;;;;;;
1779;;;;;;;;;;;;;
1781;;;;;;;;;;;;;
1783;;;;;;;;;;;;;
1785;;;;;;;;;;;;;
1787;;;;;;;;;;;;;
1789;;;;;;;;;;;;;
1791;;;;;;;;;;;;;
1793;;;;;;;;;;;;;
1795;;;;;;;;;;;;;
1797;;;;;;;;;;;;;
1799;;;;;;;;;;;;;
1801;;;;;;;;;;;;;
1803;;;;;;;;;;;;;
1805;;;;;;;;;;;;;
1807;;;;;;;;;;;;;
1809;;;;;;;;;;;;;
1811;;;;;;;;;;;;;
1813;;;;;;;;;;;;;
1815;;;;;;;;;;;;;
1817;;;;;;;;;;;;;
1819;;;;;;;;;;;;;
1821;;;;;;;;;;;;;
1823;;;;;;;;;;;;;
1825;;;;;;;;;;;;;
1827;;;;;;;;;;;;;
1829;;;;;;;;;;;;;
1831;;;;;;;;;;;;;
1833;;;;;;;;;;;;;
1835;;;;;;;;;;;;;
1837;;;;;;;;;;;;;
1839;;;;;;;;;;;;;
1841;;;;;;;;;;;;;
1843;;;;;;;;;;;;;
1845;;;;;;;;;;;;;
1847;;;;;;;;;;;;;
1849;;;;;;;;;;;;;
1851;;;;;;;;;;;;;
1853;;;;;;;;;;;;;
1855;;;;;;;;;;;;;
1857;;;;;;;;;;;;;
1859;;;;;;;;;;;;;
1861;;;;;;;;;;;;;
1863;;;;;;;;;;;;;
1865;;;;;;;;;;;;;
1867;;;;;;;;;;;;;
1869;;;;;;;;;;;;;
1871;;;;;;;;;;;;;
1873;;;;;;;;;;;;;
1875;;;;;;;;;;;;;
1877;;;;;;;;;;;;;
1879;;;;;;;;;;;;;
1881;;;;;;;;;;;;;
1883;;;;;;;;;;;;;
1885;;;;;;;;;;;;;
1887;;;;;;;;;;;;;
1889;;;;;;;;;;;;;
1891;;;;;;;;;;;;;
1893;;;;;;;;;;;;;
1895;;;;;;;;;;;;;
1897;;;;;;;;;;;;;
1899;;;;;;;;;;;;;
1901;;;;;;;;;;;;;
1903;;;;;;;;;;;;;
1905;;;;;;;;;;;;;
1907;;;;;;;;;;;;;
1909;;;;;;;;;;;;;
1911;;;;;;;;;;;;;
1913;;;;;;;;;;;;;
1915;;;;;;;;;;;;;
1917;;;;;;;;;;;;;
1919;;;;;;;;;;;;;
1921;;;;;;;;;;;;;
1923;;;;;;;;;;;;;
1925;;;;;;;;;;;;;
1927;;;;;;;;;;;;;
1929;;;;;;;;;;;;;
1931;;;;;;;;;;;;;
1933;;;;;;;;;;;;;
1935;;;;;;;;;;;;;
1937;;;;;;;;;;;;;
1939;;;;;;;;;;;;;
1941;;;;;;;;;;;;;
1943;;;;;;;;;;;;;
1945;;;;;;;;;;;;;
1947;;;;;;;;;;;;;
1949;;;;;;;;;;;;;
1951;;;;;;;;;;;;;
1953;;;;;;;;;;;;;
1955;;;;;;;;;;;;;
1957;;;;;;;;;;;;;
1959;;;;;;;;;;;;;
1961;;;;;;;;;;;;;
1963;;;;;;;;;;;;;
1965;;;;;;;;;;;;;
1967;;;;;;;;;;;;;
1969;;;;;;;;;;;;;
1971;;;;;;;;;;;;;
1973;;;;;;;;;;;;;
1975;;;;;;;;;;;;;
1977;;;;;;;;;;;;;
1979;;;;;;;;;;;;;
1981;;;;;;;;;;;;;
1983;;;;;;;;;;;;;
1985;;;;;;;;;;;;;
1987;;;;;;;;;;;;;
1989;;;;;;;;;;;;;
1991;;;;;;;;;;;;;
1993;;;;;;;;;;;;;
1995;;;;;;;;;;;;;
1997;;;;;;;;;;;;;
1999;;;;;;;;;;;;;
2001;;;;;;;;;;;;;
2003;;;;;;;;;;;;;
2005;;;;;;;;;;;;;
2007;;;;;;;;;;;;;
2009;;;;;;;;;;;;;
2011;;;;;;;;;;;;;
2013;;;;;;;;;;;;;
2015;;;;;;;;;;;;;
2017;;;;;;;;;;;;;
2019;;;;;;;;;;;;;
2021;;;;;;;;;;;;;
2023;;;;;;;;;;;;;
2025;;;;;;;;;;;;;
2027;;;;;;;;;;;;;
2029;;;;;;;;;;;;;
2031;;;;;;;;;;;;;
2033;;;;;;;;;;;;;
2035;;;;;;;;;;;;;
2037;;;;;;;;;;;;;
2039;;;;;;;;;;;;;
2041;;;;;;;;;;;;;
2043;;;;;;;;;;;;;
2045;;;;;;;;;;;;;
2047;;;;;;;;;;;;;
2049;;;;;;;;;;;;;
2051;;;;;;;;;;;;;
2053;;;;;;;;;;;;;
2055;;;;;;;;;;;;;
2057;;;;;;;;;;;;;
2059;;;;;;;;;;;;;
2061;;;;;;;;;;;;;
2063;;;;;;;;;;;;;
2065;;;;;;;;;;;;;
2067;;;;;;;;;;;;;
2069;;;;;;;;;;;;;
2071;;;;;;;;;;;;;
2073;;;;;;;;;;;;;
2075;;;;;;;;;;;;;
2077;;;;;;;;;;;;;
2079;;;;;;;;;;;;;
2081;;;;;;;;;;;;;
2083;;;;;;;;;;;;;
2085;;;;;;;;;;;;;
2087;;;;;;;;;;;;;
2089;;;;;;;;;;;;;
2091;;;;;;;;;;;;;
2093;;;;;;;;;;;;;
2095;;;;;;;;;;;;;
2097;;;;;;;;;;;;;
2099;;;;;;;;;;;;;
2101;;;;;;;;;;;;;
2103;;;;;;;;;;;;;
2105;;;;;;;;;;;;;
2107;;;;;;;;;;;;;
2109;;;;;;;;;;;;;
2111;;;;;;;;;;;;;
2113;;;;;;;;;;;;;
2115;;;;;;;;;;;;;
2117;;;;;;;;;;;;;
2119;;;;;;;;;;;;;
2121;;;;;;;;;;;;;
2123;;;;;;;;;;;;;
2125;;;;;;;;;;;;;
2127;;;;;;;;;;;;;
2129;;;;;;;;;;;;;
2131;;;;;;;;;;;;;
2133;;;;;;;;;;;;;
2135;;;;;;;;;;;;;
2137;;;;;;;;;;;;;
2139;;;;;;;;;;;;;
2141;;;;;;;;;;;;;
2143;;;;;;;;;;;;;
2145;;;;;;;;;;;;;
2147;;;;;;;;;;;;;
2149;;;;;;;;;;;;;
2151;;;;;;;;;;;;;
2153;;;;;;;;;;;;;
2155;;;;;;;;;;;;;
2157;;;;;;;;;;;;;
2159;;;;;;;;;;;;;
2161;;;;;;;;;;;;;
2163;;;;;;;;;;;;;
2165;;;;;;;;;;;;;
2167;;;;;;;;;;;;;
2169;;;;;;;;;;;;;
2171;;;;;;;;;;;;;
2173;;;;;;;;;;;;;
2175;;;;;;;;;;;;;
2177;;;;;;;;;;;;;
2179;;;;;;;;;;;;;
2181;;;;;;;;;;;;;
2183;;;;;;;;;;;;;
2185;;;;;;;;;;;;;
2187;;;;;;;;;;;;;
2189;;;;;;;;;;;;;
2191;;;;;;;;;;;;;
2193;;;;;;;;;;;;;
2195;;;;;;;;;;;;;
2197;;;;;;;;;;;;;
2199;;;;;;;;;;;;;
2201;;;;;;;;;;;;;
2203;;;;;;;;;;;;;
2205;;;;;;;;;;;;;
2207;;;;;;;;;;;;;
2209;;;;;;;;;;;;;
2211;;;;;;;;;;;;;
2213;;;;;;;;;;;;;
2215;;;;;;;;;;;;;
2217;;;;;;;;;;;;;
2219;;;;;;;;;;;;;
2221;;;;;;;;;;;;;
2223;;;;;;;;;;;;;
2225;;;;;;;;;;;;;
2227;;;;;;;;;;;;;
2229;;;;;;;;;;;;;
2231;;;;;;;;;;;;;
2233;;;;;;;;;;;;;
2235;;;;;;;;;;;;;
2237;;;;;;;;;;;;;
2239;;;;;;;;;;;;;
2241;;;;;;;;;;;;;
2243;;;;;;;;;;;;;
2245;;;;;;;;;;;;;
2247;;;;;;;;;;;;;
2249;;;;;;;;;;;;;
2251;;;;;;;;;;;;;
2253;;;;;;;;;;;;;
2255;;;;;;;;;;;;;
2257;;;;;;;;;;;;;
2259;;;;;;;;;;;;;
2261;;;;;;;;;;;;;
2263;;;;;;;;;;;;;
2265;;;;;;;;;;;;;
2267;;;;;;;;;;;;;
2269;;;;;;;;;;;;;
2271;;;;;;;;;;;;;
2273;;;;;;;;;;;;;
2275;;;;;;;;;;;;;
2277;;;;;;;;;;;;;
2279;;;;;;;;;;;;;
2281;;;;;;;;;;;;;
2283;;;;;;;;;;;;;
2285;;;;;;;;;;;;;
2287;;;;;;;;;;;;;
2289;;;;;;;;;;;;;
2291;;;;;;;;;;;;;
2293;;;;;;;;;;;;;
2295;;;;;;;;;;;;;
2297;;;;;;;;;;;;;
2299;;;;;;;;;;;;;
2301;;;;;;;;;;;;;
2303;;;;;;;;;;;;;
2305;;;;;;;;;;;;;
2307;;;;;;;;;;;;;
2309;;;;;;;;;;;;;
2311;;;;;;;;;;;;;
2313;;;;;;;;;;;;;
2315;;;;;;;;;;;;;
2317;;;;;;;;;;;;;
2319;;;;;;;;;;;;;
2321;;;;;;;;;;;;;
2323;;;;;;;;;;;;;
2325;;;;;;;;;;;;;
2327;;;;;;;;;;;;;
2329;;;;;;;;;;;;;
2331;;;;;;;;;;;;;
2333;;;;;;;;;;;;;
2335;;;;;;;;;;;;;
2337;;;;;;;;;;;;;
2339;;;;;;;;;;;;;
2341;;;;;;;;;;;;;
2343;;;;;;;;;;;;;
2345;;;;;;;;;;;;;
2347;;;;;;;;;;;;;
2349;;;;;;;;;;;;;
2351;;;;;;;;;;;;;
2353;;;;;;;;;;;;;
2355;;;;;;;;;;;;;
2357;;;;;;;;;;;;;
2359;;;;;;;;;;;;;
2361;;;;;;;;;;;;;
2363;;;;;;;;;;;;;
2365;;;;;;;;;;;;;
2367;;;;;;;;;;;;;
2369;;;;;;;;;;;;;
2371;;;;;;;;;;;;;
2373;;;;;;;;;;;;;
2375;;;;;;;;;;;;;
2377;;;;;;;;;;;;;
2379;;;;;;;;;;;;;
2381;;;;;;;;;;;;;
2383;;;;;;;;;;;;;
2385;;;;;;;;;;;;;
2387;;;;;;;;;;;;;
2389;;;;;;;;;;;;;
2391;;;;;;;;;;;;;
2393;;;;;;;;;;;;;
2395;;;;;;;;;;;;;
2397;;;;;;;;;;;;;
2399;;;;;;;;;;;;;
2401;;;;;;;;;;;;;
2403;;;;;;;;;;;;;
2405;;;;;;;;;;;;;
2407;;;;;;;;;;;;;
2409;;;;;;;;;;;;;
2411;;;;;;;;;;;;;
2413;;;;;;;;;;;;;
2415;;;;;;;;;;;;;
2417;;;;;;;;;;;;;
2419;;;;;;;;;;;;;
2421;;;;;;;;;;;;;
2423;;;;;;;;;;;;;
2425;;;;;;;;;;;;;
2427;;;;;;;;;;;;;
2429;;;;;;;;;;;;;
2431;;;;;;;;;;;;;
2433;;;;;;;;;;;;;
2435;;;;;;;;;;;;;
2437;;;;;;;;;;;;;
2439;;;;;;;;;;;;;
2441;;;;;;;;;;;;;
2443;;;;;;;;;;;;;
2445;;;;;;;;;;;;;
2447;;;;;;;;;;;;;
2449;;;;;;;;;;;;;
2451;;;;;;;;;;;;;
2453;;;;;;;;;;;;;
2455;;;;;;;;;;;;;
2457;;;;;;;;;;;;;
2459;;;;;;;;;;;;;
2461;;;;;;;;;;;;;
2463;;;;;;;;;;;;;
2465;;;;;;;;;;;;;
2467;;;;;;;;;;;;;
2469;;;;;;;;;;;;;
2471;;;;;;;;;;;;;
2473;;;;;;;;;;;;;
2475;;;;;;;;;;;;;
2477;;;;;;;;;;;;;
2479;;;;;;;;;;;;;
2481;;;;;;;;;;;;;
2483;;;;;;;;;;;;;
2485;;;;;;;;;;;;;
2487;;;;;;;;;;;;;
2489;;;;;;;;;;;;;
2491;;;;;;;;;;;;;
2493;;;;;;;;;;;;;
2495;;;;;;;;;;;;;
2497;;;;;;;;;;;;;
2499;;;;;;;;;;;;;
2501;;;;;;;;;;;;;
2503;;;;;;;;;;;;;
2505;;;;;;;;;;;;;
2507;;;;;;;;;;;;;
2509;;;;;;;;;;;;;
2511;;;;;;;;;;;;;
2513;;;;;;;;;;;;;
2515;;;;;;;;;;;;;
2517;;;;;;;;;;;;;
2519;;;;;;;;;;;;;
2521;;;;;;;;;;;;;
2523;;;;;;;;;;;;;
2525;;;;;;;;;;;;;
2527;;;;;;;;;;;;;
2529;;;;;;;;;;;;;
2531;;;;;;;;;;;;;
2533;;;;;;;;;;;;;
2535;;;;;;;;;;;;;
2536;;;;;;;;;;;;;