File: carbon_superP/O2_1200rpm.txt
Index;Column 2 (V);Column 3 (V);Column 4 (V);Column 5 (V);Column 6 (V/s);Column 7 (V);Time (s);Potential applied (V);WE(1).Current (A);WE(1).Potential (V);Scan;Column 13 (RPM);ω (rad/s)
1;0;0.01;-1;-0.01;0.01;-0.00244;10699.2;-0.0146484;8.45947e-07;-0.0144409;3;1200;125.664
3;;;;;;;10699.7;-0.01953125;6.47888e-07;-0.0192413;3;;
5;;;;;;;10700.2;-0.0244141;4.9408e-07;-0.0242035;3;;
7;;;;;;;10700.7;-0.0292969;3.50037e-07;-0.0289978;3;;
9;;;;;;;10701.1;-0.0341797;2.19727e-07;-0.0338898;3;;
11;;;;;;;10701.6;-0.0390625;7.23267e-08;-0.0387604;3;;
13;;;;;;;10702.1;-0.0439453;-5.31006e-08;-0.0435516;3;;
15;;;;;;;10702.6;-0.0488281;-1.72424e-07;-0.0485107;3;;
17;;;;;;;10703.1;-0.0537109;-3.26538e-07;-0.0533142;3;;
19;;;;;;;10703.6;-0.05859375;-4.71497e-07;-0.0582581;3;;
21;;;;;;;10704.1;-0.0634766;-6.21643e-07;-0.0630493;3;;
23;;;;;;;10704.6;-0.0683594;-7.78809e-07;-0.0680237;3;;
25;;;;;;;10705.1;-0.0732422;-9.42688e-07;-0.0728455;3;;
27;;;;;;;10705.5;-0.078125;-1.13586e-06;-0.0776672;3;;
29;;;;;;;10706;-0.0830078;-1.36047e-06;-0.0824585;3;;
31;;;;;;;10706.5;-0.0878906;-1.60248e-06;-0.0873718;3;;
33;;;;;;;10707;-0.0927734;-1.87439e-06;-0.0923157;3;;
35;;;;;;;10707.5;-0.09765625;-2.15363e-06;-0.0971985;3;;
37;;;;;;;10708;-0.102539;-2.50549e-06;-0.101868;3;;
39;;;;;;;10708.5;-0.107422;-2.8949e-06;-0.10672;3;;
41;;;;;;;10709;-0.112305;-3.31604e-06;-0.111908;3;;
43;;;;;;;10709.4;-0.1171875;-3.81775e-06;-0.116852;3;;
45;;;;;;;10709.9;-0.12207;-4.37927e-06;-0.121674;3;;
47;;;;;;;10710.4;-0.126953;-5.03235e-06;-0.126556;3;;
49;;;;;;;10710.9;-0.131836;-5.73425e-06;-0.131378;3;;
51;;;;;;;10711.4;-0.136719;-6.59485e-06;-0.136261;3;;
53;;;;;;;10711.9;-0.141602;-7.50427e-06;-0.141144;3;;
55;;;;;;;10712.4;-0.146484;-8.57849e-06;-0.145996;3;;
57;;;;;;;10712.9;-0.151367;-9.75647e-06;-0.150787;3;;
59;;;;;;;10713.4;-0.15625;-1.1142e-05;-0.155701;3;;
61;;;;;;;10713.8;-0.161133;-1.26465e-05;-0.160553;3;;
63;;;;;;;10714.3;-0.166016;-1.43768e-05;-0.165466;3;;
65;;;;;;;10714.8;-0.170898;-1.63513e-05;-0.170288;3;;
67;;;;;;;10715.3;-0.175781;-1.85486e-05;-0.17514;3;;
69;;;;;;;10715.8;-0.180664;-2.10602e-05;-0.179932;3;;
71;;;;;;;10716.3;-0.185547;-2.39105e-05;-0.184723;3;;
73;;;;;;;10716.8;-0.19043;-2.7066e-05;-0.189575;3;;
75;;;;;;;10717.3;-0.1953125;-3.06244e-05;-0.194489;3;;
77;;;;;;;10717.7;-0.200195;-3.46802e-05;-0.199677;3;;
79;;;;;;;10718.2;-0.205078;-3.93372e-05;-0.204529;3;;
81;;;;;;;10718.7;-0.209961;-4.45038e-05;-0.209442;3;;
83;;;;;;;10719.2;-0.214844;-5.02014e-05;-0.214172;3;;
85;;;;;;;10719.7;-0.219727;-5.68542e-05;-0.219116;3;;
87;;;;;;;10720.2;-0.224609;-6.44226e-05;-0.223938;3;;
89;;;;;;;10720.7;-0.229492;-7.2876e-05;-0.228882;3;;
91;;;;;;;10721.2;-0.234375;-8.21838e-05;-0.233765;3;;
93;;;;;;;10721.7;-0.239258;-9.2804e-05;-0.238586;3;;
95;;;;;;;10722.1;-0.244141;-0.000105042;-0.243408;3;;
97;;;;;;;10722.6;-0.249023;-0.000118652;-0.248352;3;;
99;;;;;;;10723.1;-0.253906;-0.000133514;-0.253204;3;;
101;;;;;;;10723.6;-0.258789;-0.000150055;-0.258026;3;;
103;;;;;;;10724.1;-0.263672;-0.000168884;-0.262909;3;;
105;;;;;;;10724.6;-0.268555;-0.000189728;-0.26767;3;;
107;;;;;;;10725.1;-0.2734375;-0.000212158;-0.272552;3;;
109;;;;;;;10725.6;-0.27832;-0.000236115;-0.277344;3;;
111;;;;;;;10726;-0.283203;-0.000262695;-0.282257;3;;
113;;;;;;;10726.5;-0.288086;-0.000291718;-0.286987;3;;
115;;;;;;;10727;-0.292969;-0.000322266;-0.292297;3;;
117;;;;;;;10727.5;-0.297852;-0.00035379;-0.29715;3;;
119;;;;;;;10728;-0.302734;-0.000387207;-0.302002;3;;
121;;;;;;;10728.5;-0.307617;-0.000422791;-0.306885;3;;
123;;;;;;;10729;-0.3125;-0.000459351;-0.311768;3;;
125;;;;;;;10729.5;-0.317383;-0.000495697;-0.316681;3;;
127;;;;;;;10730;-0.322266;-0.000531921;-0.321533;3;;
129;;;;;;;10730.4;-0.327148;-0.000569763;-0.326416;3;;
131;;;;;;;10730.9;-0.332031;-0.00060791;-0.331238;3;;
133;;;;;;;10731.4;-0.336914;-0.000643921;-0.336029;3;;
135;;;;;;;10731.9;-0.341797;-0.000678406;-0.341003;3;;
137;;;;;;;10732.4;-0.34668;-0.000712585;-0.345917;3;;
139;;;;;;;10732.9;-0.3515625;-0.00074646;-0.350739;3;;
141;;;;;;;10733.4;-0.356445;-0.000776672;-0.35556;3;;
143;;;;;;;10733.9;-0.361328;-0.000804138;-0.360443;3;;
145;;;;;;;10734.3;-0.366211;-0.000829468;-0.365295;3;;
147;;;;;;;10734.8;-0.371094;-0.000853271;-0.370178;3;;
149;;;;;;;10735.3;-0.375977;-0.000874023;-0.375061;3;;
151;;;;;;;10735.8;-0.380859;-0.000891418;-0.379944;3;;
153;;;;;;;10736.3;-0.385742;-0.000905457;-0.384827;3;;
155;;;;;;;10736.8;-0.390625;-0.000918884;-0.38974;3;;
157;;;;;;;10737.3;-0.395508;-0.000931091;-0.394562;3;;
159;;;;;;;10737.8;-0.400391;-0.000940552;-0.399414;3;;
161;;;;;;;10738.3;-0.405273;-0.000948181;-0.404266;3;;
163;;;;;;;10738.7;-0.410156;-0.000955811;-0.40921;3;;
165;;;;;;;10739.2;-0.415039;-0.000964355;-0.414032;3;;
167;;;;;;;10739.7;-0.419922;-0.000971985;-0.418976;3;;
169;;;;;;;10740.2;-0.424805;-0.000978394;-0.423828;3;;
171;;;;;;;10740.7;-0.4296875;-0.000983887;-0.428741;3;;
173;;;;;;;10741.2;-0.43457;-0.000990295;-0.433563;3;;
175;;;;;;;10741.7;-0.439453;-0.00099762;-0.438477;3;;
177;;;;;;;10742.2;-0.444336;-0.00100281;-0.443329;3;;
179;;;;;;;10742.6;-0.449219;-0.00100739;-0.448212;3;;
181;;;;;;;10743.1;-0.454102;-0.00101318;-0.453064;3;;
183;;;;;;;10743.6;-0.458984;-0.00101929;-0.457916;3;;
185;;;;;;;10744.1;-0.463867;-0.00102448;-0.46286;3;;
187;;;;;;;10744.6;-0.46875;-0.00102905;-0.467682;3;;
189;;;;;;;10745.1;-0.473633;-0.00103241;-0.472595;3;;
191;;;;;;;10745.6;-0.478516;-0.00103729;-0.477417;3;;
193;;;;;;;10746.1;-0.483398;-0.00104187;-0.4823;3;;
195;;;;;;;10746.6;-0.488281;-0.00104462;-0.487213;3;;
197;;;;;;;10747;-0.493164;-0.00104736;-0.492065;3;;
199;;;;;;;10747.5;-0.498047;-0.00105072;-0.496979;3;;
201;;;;;;;10748;-0.50293;-0.00105469;-0.501831;3;;
203;;;;;;;10748.5;-0.5078125;-0.00105743;-0.506714;3;;
205;;;;;;;10749;-0.512695;-0.00105927;-0.511536;3;;
207;;;;;;;10749.5;-0.517578;-0.00106262;-0.51651;3;;
209;;;;;;;10750;-0.522461;-0.00106567;-0.521362;3;;
211;;;;;;;10750.5;-0.527344;-0.00106873;-0.526184;3;;
213;;;;;;;10750.9;-0.532227;-0.00106995;-0.531036;3;;
215;;;;;;;10751.4;-0.537109;-0.00107178;-0.535919;3;;
217;;;;;;;10751.9;-0.541992;-0.00107391;-0.540833;3;;
219;;;;;;;10752.4;-0.546875;-0.00107635;-0.545685;3;;
221;;;;;;;10752.9;-0.551758;-0.00107941;-0.550598;3;;
223;;;;;;;10753.4;-0.556641;-0.00107849;-0.55545;3;;
225;;;;;;;10753.9;-0.561523;-0.00107971;-0.560333;3;;
227;;;;;;;10754.4;-0.566406;-0.00108276;-0.565186;3;;
229;;;;;;;10754.9;-0.571289;-0.00108429;-0.570038;3;;
231;;;;;;;10755.3;-0.576172;-0.00108398;-0.574951;3;;
233;;;;;;;10755.8;-0.581055;-0.00108429;-0.579865;3;;
235;;;;;;;10756.3;-0.5859375;-0.00108734;-0.584686;3;;
237;;;;;;;10756.8;-0.59082;-0.00108856;-0.589539;3;;
239;;;;;;;10757.3;-0.595703;-0.00108765;-0.594452;3;;
241;;;;;;;10757.8;-0.600586;-0.00108826;-0.599335;3;;
243;;;;;;;10758.3;-0.605469;-0.00108978;-0.604156;3;;
245;;;;;;;10758.8;-0.610352;-0.00109131;-0.609039;3;;
247;;;;;;;10759.3;-0.615234;-0.00109222;-0.613953;3;;
249;;;;;;;10759.7;-0.620117;-0.00109039;-0.618835;3;;
251;;;;;;;10760.2;-0.625;-0.00109161;-0.623688;3;;
253;;;;;;;10760.7;-0.629883;-0.00109253;-0.628571;3;;
255;;;;;;;10761.2;-0.634766;-0.00109222;-0.633453;3;;
257;;;;;;;10761.7;-0.639648;-0.00108978;-0.638367;3;;
259;;;;;;;10762.2;-0.644531;-0.00108917;-0.64325;3;;
261;;;;;;;10762.7;-0.649414;-0.00108917;-0.648071;3;;
263;;;;;;;10763.2;-0.654297;-0.0010907;-0.652985;3;;
265;;;;;;;10763.6;-0.65918;-0.00108887;-0.657898;3;;
267;;;;;;;10764.1;-0.6640625;-0.00108704;-0.662689;3;;
269;;;;;;;10764.6;-0.668945;-0.00108521;-0.667603;3;;
271;;;;;;;10765.1;-0.673828;-0.00108673;-0.672485;3;;
273;;;;;;;10765.6;-0.678711;-0.00108551;-0.677368;3;;
275;;;;;;;10766.1;-0.683594;-0.00108337;-0.68222;3;;
277;;;;;;;10766.6;-0.688477;-0.00108154;-0.687073;3;;
279;;;;;;;10767.1;-0.693359;-0.00108154;-0.692017;3;;
281;;;;;;;10767.6;-0.698242;-0.00108063;-0.696869;3;;
283;;;;;;;10768;-0.703125;-0.0010791;-0.701813;3;;
285;;;;;;;10768.5;-0.708008;-0.00107697;-0.706696;3;;
287;;;;;;;10769;-0.712891;-0.00107635;-0.711548;3;;
289;;;;;;;10769.5;-0.717773;-0.00107605;-0.716431;3;;
291;;;;;;;10770;-0.722656;-0.00107452;-0.721313;3;;
293;;;;;;;10770.5;-0.727539;-0.00107178;-0.726196;3;;
295;;;;;;;10771;-0.732422;-0.00107147;-0.731049;3;;
297;;;;;;;10771.5;-0.737305;-0.00107269;-0.735931;3;;
299;;;;;;;10771.9;-0.7421875;-0.00107025;-0.740845;3;;
301;;;;;;;10772.4;-0.74707;-0.00106781;-0.745697;3;;
303;;;;;;;10772.9;-0.751953;-0.00106659;-0.751343;3;;
305;;;;;;;10773.4;-0.756836;-0.00106567;-0.756226;3;;
307;;;;;;;10773.9;-0.761719;-0.00106537;-0.761108;3;;
309;;;;;;;10774.4;-0.766602;-0.00106323;-0.766296;3;;
311;;;;;;;10774.9;-0.771484;-0.00106232;-0.771179;3;;
313;;;;;;;10775.4;-0.776367;-0.00106232;-0.775757;3;;
315;;;;;;;10775.9;-0.78125;-0.00106171;-0.780945;3;;
317;;;;;;;10776.3;-0.786133;-0.00105957;-0.785828;3;;
319;;;;;;;10776.8;-0.791016;-0.00105774;-0.7901;3;;
321;;;;;;;10777.3;-0.795898;-0.00105865;-0.794983;3;;
323;;;;;;;10777.8;-0.800781;-0.00106171;-0.800171;3;;
325;;;;;;;10778.3;-0.805664;-0.00105957;-0.804749;3;;
327;;;;;;;10778.8;-0.810547;-0.00106018;-0.809326;3;;
329;;;;;;;10779.3;-0.81543;-0.00106018;-0.814209;3;;
331;;;;;;;10779.8;-0.8203125;-0.00106018;-0.819702;3;;
333;;;;;;;10780.2;-0.825195;-0.00106171;-0.82428;3;;
335;;;;;;;10780.7;-0.830078;-0.0010614;-0.829163;3;;
337;;;;;;;10781.2;-0.834961;-0.00106079;-0.834351;3;;
339;;;;;;;10781.7;-0.839844;-0.0010611;-0.838928;3;;
341;;;;;;;10782.2;-0.844727;-0.00106384;-0.843811;3;;
343;;;;;;;10782.7;-0.849609;-0.00106537;-0.849304;3;;
345;;;;;;;10783.2;-0.854492;-0.00106506;-0.853577;3;;
347;;;;;;;10783.7;-0.859375;-0.00106659;-0.858459;3;;
349;;;;;;;10784.2;-0.864258;-0.00107025;-0.863342;3;;
351;;;;;;;10784.6;-0.869141;-0.00107086;-0.868225;3;;
353;;;;;;;10785.1;-0.874023;-0.00107117;-0.873108;3;;
355;;;;;;;10785.6;-0.878906;-0.00107239;-0.877991;3;;
357;;;;;;;10786.1;-0.883789;-0.00107361;-0.883179;3;;
359;;;;;;;10786.6;-0.888672;-0.00107727;-0.888062;3;;
361;;;;;;;10787.1;-0.893555;-0.00108002;-0.892944;3;;
363;;;;;;;10787.6;-0.8984375;-0.0010791;-0.897827;3;;
365;;;;;;;10788.1;-0.90332;-0.0010788;-0.903015;3;;
367;;;;;;;10788.5;-0.908203;-0.00108337;-0.908203;3;;
369;;;;;;;10789;-0.913086;-0.00108368;-0.91217;3;;
371;;;;;;;10789.5;-0.917969;-0.00108337;-0.917664;3;;
373;;;;;;;10790;-0.922852;-0.00108643;-0.921936;3;;
375;;;;;;;10790.5;-0.927734;-0.00108795;-0.926819;3;;
377;;;;;;;10791;-0.932617;-0.00108856;-0.932007;3;;
379;;;;;;;10791.5;-0.9375;-0.00108917;-0.937195;3;;
381;;;;;;;10792;-0.942383;-0.00108856;-0.941467;3;;
383;;;;;;;10792.5;-0.947266;-0.00108978;-0.946655;3;;
385;;;;;;;10792.9;-0.952148;-0.00109253;-0.951233;3;;
387;;;;;;;10793.4;-0.957031;-0.00109222;-0.956116;3;;
389;;;;;;;10793.9;-0.961914;-0.001091;-0.960999;3;;
391;;;;;;;10794.4;-0.966797;-0.00109222;-0.966187;3;;
393;;;;;;;10794.9;-0.97168;-0.00109283;-0.970764;3;;
395;;;;;;;10795.4;-0.9765625;-0.00109558;-0.9765625;3;;
397;;;;;;;10795.9;-0.981445;-0.00109528;-0.980835;3;;
399;;;;;;;10796.4;-0.986328;-0.0010965;-0.985413;3;;
401;;;;;;;10796.8;-0.991211;-0.00109741;-0.98999;3;;
403;;;;;;;10797.3;-0.996094;-0.00109955;-0.995178;3;;
405;;;;;;;10797.8;-1.00098;-0.00110016;-1.00067;3;;
407;;;;;;;10798.3;-0.996094;-0.00108704;-0.995178;3;;
409;;;;;;;10798.8;-0.991211;-0.00107819;-0.990601;3;;
411;;;;;;;10799.3;-0.986328;-0.00107208;-0.985107;3;;
413;;;;;;;10799.8;-0.981445;-0.00106598;-0.980835;3;;
415;;;;;;;10800.3;-0.9765625;-0.00106049;-0.975952;3;;
417;;;;;;;10800.8;-0.97168;-0.00105621;-0.971069;3;;
419;;;;;;;10801.2;-0.966797;-0.00105255;-0.965576;3;;
421;;;;;;;10801.7;-0.961914;-0.0010495;-0.961304;3;;
423;;;;;;;10802.2;-0.957031;-0.00104553;-0.956421;3;;
425;;;;;;;10802.7;-0.952148;-0.00104095;-0.951538;3;;
427;;;;;;;10803.2;-0.947266;-0.0010376;-0.946655;3;;
429;;;;;;;10803.7;-0.942383;-0.0010379;-0.941772;3;;
431;;;;;;;10804.2;-0.9375;-0.00103455;-0.93689;3;;
433;;;;;;;10804.7;-0.932617;-0.00103058;-0.932312;3;;
435;;;;;;;10805.1;-0.927734;-0.00102722;-0.926514;3;;
437;;;;;;;10805.6;-0.922852;-0.00102631;-0.921936;3;;
439;;;;;;;10806.1;-0.917969;-0.00102509;-0.917664;3;;
441;;;;;;;10806.6;-0.913086;-0.00102142;-0.91217;3;;
443;;;;;;;10807.1;-0.908203;-0.00101837;-0.907593;3;;
445;;;;;;;10807.6;-0.90332;-0.00101715;-0.90271;3;;
447;;;;;;;10808.1;-0.8984375;-0.00101715;-0.897217;3;;
449;;;;;;;10808.6;-0.893555;-0.00101349;-0.892639;3;;
451;;;;;;;10809.1;-0.888672;-0.00101135;-0.888062;3;;
453;;;;;;;10809.5;-0.883789;-0.00100922;-0.882874;3;;
455;;;;;;;10810;-0.878906;-0.00101044;-0.878906;3;;
457;;;;;;;10810.5;-0.874023;-0.0010083;-0.873108;3;;
459;;;;;;;10811;-0.869141;-0.00100586;-0.868225;3;;
461;;;;;;;10811.5;-0.864258;-0.00100494;-0.863037;3;;
463;;;;;;;10812;-0.859375;-0.00100586;-0.858765;3;;
465;;;;;;;10812.5;-0.854492;-0.00100464;-0.853577;3;;
467;;;;;;;10813;-0.849609;-0.00100372;-0.848999;3;;
469;;;;;;;10813.4;-0.844727;-0.00100372;-0.844116;3;;
471;;;;;;;10813.9;-0.839844;-0.00100159;-0.839233;3;;
473;;;;;;;10814.4;-0.834961;-0.00100281;-0.83374;3;;
475;;;;;;;10814.9;-0.830078;-0.00100433;-0.829468;3;;
477;;;;;;;10815.4;-0.825195;-0.00100311;-0.82489;3;;
479;;;;;;;10815.9;-0.8203125;-0.00100128;-0.819397;3;;
481;;;;;;;10816.4;-0.81543;-0.00100403;-0.814514;3;;
483;;;;;;;10816.9;-0.810547;-0.00100586;-0.809631;3;;
485;;;;;;;10817.4;-0.805664;-0.00100586;-0.805054;3;;
487;;;;;;;10817.8;-0.800781;-0.00100677;-0.800476;3;;
489;;;;;;;10818.3;-0.795898;-0.00100922;-0.794678;3;;
491;;;;;;;10818.8;-0.791016;-0.00101105;-0.790405;3;;
493;;;;;;;10819.3;-0.786133;-0.00101257;-0.785828;3;;
495;;;;;;;10819.8;-0.78125;-0.00101257;-0.780334;3;;
497;;;;;;;10820.3;-0.776367;-0.00101532;-0.775452;3;;
499;;;;;;;10820.8;-0.771484;-0.00101776;-0.770874;3;;
501;;;;;;;10821.3;-0.766602;-0.00102142;-0.765686;3;;
503;;;;;;;10821.8;-0.761719;-0.00102295;-0.761108;3;;
505;;;;;;;10822.2;-0.756836;-0.00102173;-0.75592;3;;
507;;;;;;;10822.7;-0.751953;-0.00102814;-0.751648;3;;
509;;;;;;;10823.2;-0.74707;-0.00103088;-0.745728;3;;
511;;;;;;;10823.7;-0.7421875;-0.00103241;-0.740845;3;;
513;;;;;;;10824.2;-0.737305;-0.00103577;-0.736023;3;;
515;;;;;;;10824.7;-0.732422;-0.00103668;-0.731079;3;;
517;;;;;;;10825.2;-0.727539;-0.00104218;-0.726257;3;;
519;;;;;;;10825.7;-0.722656;-0.00104431;-0.721344;3;;
521;;;;;;;10826.1;-0.717773;-0.00104614;-0.716461;3;;
523;;;;;;;10826.6;-0.712891;-0.00104645;-0.711578;3;;
525;;;;;;;10827.1;-0.708008;-0.00105042;-0.706665;3;;
527;;;;;;;10827.6;-0.703125;-0.00105377;-0.701782;3;;
529;;;;;;;10828.1;-0.698242;-0.0010553;-0.696899;3;;
531;;;;;;;10828.6;-0.693359;-0.00105743;-0.692017;3;;
533;;;;;;;10829.1;-0.688477;-0.00105835;-0.687164;3;;
535;;;;;;;10829.6;-0.683594;-0.00106232;-0.682281;3;;
537;;;;;;;10830.1;-0.678711;-0.00106445;-0.677399;3;;
539;;;;;;;10830.5;-0.673828;-0.00106415;-0.672546;3;;
541;;;;;;;10831;-0.668945;-0.00106689;-0.667633;3;;
543;;;;;;;10831.5;-0.6640625;-0.00107025;-0.66272;3;;
545;;;;;;;10832;-0.65918;-0.00106903;-0.657837;3;;
547;;;;;;;10832.5;-0.654297;-0.00106964;-0.652985;3;;
549;;;;;;;10833;-0.649414;-0.00106842;-0.648041;3;;
551;;;;;;;10833.5;-0.644531;-0.00107178;-0.64325;3;;
553;;;;;;;10834;-0.639648;-0.00107269;-0.638367;3;;
555;;;;;;;10834.4;-0.634766;-0.00107147;-0.633514;3;;
557;;;;;;;10834.9;-0.629883;-0.00106873;-0.62854;3;;
559;;;;;;;10835.4;-0.625;-0.00106995;-0.623688;3;;
561;;;;;;;10835.9;-0.620117;-0.00106873;-0.618835;3;;
563;;;;;;;10836.4;-0.615234;-0.00107025;-0.613953;3;;
565;;;;;;;10836.9;-0.610352;-0.00106842;-0.609039;3;;
567;;;;;;;10837.4;-0.605469;-0.0010675;-0.604156;3;;
569;;;;;;;10837.9;-0.600586;-0.00106781;-0.599304;3;;
571;;;;;;;10838.4;-0.595703;-0.00106659;-0.594452;3;;
573;;;;;;;10838.8;-0.59082;-0.00106445;-0.589508;3;;
575;;;;;;;10839.3;-0.5859375;-0.00106171;-0.584747;3;;
577;;;;;;;10839.8;-0.581055;-0.00105957;-0.579773;3;;
579;;;;;;;10840.3;-0.576172;-0.00106079;-0.574951;3;;
581;;;;;;;10840.8;-0.571289;-0.00105896;-0.570068;3;;
583;;;;;;;10841.3;-0.566406;-0.0010556;-0.565155;3;;
585;;;;;;;10841.8;-0.561523;-0.00105438;-0.560272;3;;
587;;;;;;;10842.3;-0.556641;-0.00105408;-0.55542;3;;
589;;;;;;;10842.7;-0.551758;-0.00105377;-0.550568;3;;
591;;;;;;;10843.2;-0.546875;-0.00105133;-0.545654;3;;
593;;;;;;;10843.7;-0.541992;-0.00104706;-0.540802;3;;
595;;;;;;;10844.2;-0.537109;-0.00104675;-0.535919;3;;
597;;;;;;;10844.7;-0.532227;-0.00104553;-0.531097;3;;
599;;;;;;;10845.2;-0.527344;-0.00104279;-0.526184;3;;
601;;;;;;;10845.7;-0.522461;-0.00104004;-0.521362;3;;
603;;;;;;;10846.2;-0.517578;-0.00103699;-0.516388;3;;
605;;;;;;;10846.7;-0.512695;-0.00103699;-0.511566;3;;
607;;;;;;;10847.1;-0.5078125;-0.00103455;-0.506714;3;;
609;;;;;;;10847.6;-0.50293;-0.00103149;-0.501831;3;;
611;;;;;;;10848.1;-0.498047;-0.00102783;-0.496979;3;;
613;;;;;;;10848.6;-0.493164;-0.00102509;-0.492035;3;;
615;;;;;;;10849.1;-0.488281;-0.00102325;-0.487183;3;;
617;;;;;;;10849.6;-0.483398;-0.0010202;-0.482361;3;;
619;;;;;;;10850.1;-0.478516;-0.00101624;-0.477448;3;;
621;;;;;;;10850.6;-0.473633;-0.00101196;-0.472595;3;;
623;;;;;;;10851;-0.46875;-0.00100861;-0.467682;3;;
625;;;;;;;10851.5;-0.463867;-0.00100464;-0.462799;3;;
627;;;;;;;10852;-0.458984;-0.00100006;-0.457886;3;;
629;;;;;;;10852.5;-0.454102;-0.000993652;-0.453033;3;;
631;;;;;;;10853;-0.449219;-0.00098938;-0.448181;3;;
633;;;;;;;10853.5;-0.444336;-0.000983582;-0.443298;3;;
635;;;;;;;10854;-0.439453;-0.000976257;-0.438416;3;;
637;;;;;;;10854.5;-0.43457;-0.000968628;-0.433563;3;;
639;;;;;;;10855;-0.4296875;-0.000960999;-0.42868;3;;
641;;;;;;;10855.4;-0.424805;-0.000953369;-0.423859;3;;
643;;;;;;;10855.9;-0.419922;-0.000943909;-0.418976;3;;
645;;;;;;;10856.4;-0.415039;-0.000932007;-0.414032;3;;
647;;;;;;;10856.9;-0.410156;-0.00092041;-0.409241;3;;
649;;;;;;;10857.4;-0.405273;-0.000908508;-0.404327;3;;
651;;;;;;;10857.9;-0.400391;-0.000895386;-0.399536;3;;
653;;;;;;;10858.4;-0.395508;-0.000879822;-0.394592;3;;
655;;;;;;;10858.9;-0.390625;-0.000862427;-0.389771;3;;
657;;;;;;;10859.3;-0.385742;-0.000845642;-0.384857;3;;
659;;;;;;;10859.8;-0.380859;-0.000827637;-0.379913;3;;
661;;;;;;;10860.3;-0.375977;-0.000807495;-0.375092;3;;
663;;;;;;;10860.8;-0.371094;-0.000785522;-0.370239;3;;
665;;;;;;;10861.3;-0.366211;-0.000763245;-0.365356;3;;
667;;;;;;;10861.8;-0.361328;-0.000740356;-0.360504;3;;
669;;;;;;;10862.3;-0.356445;-0.000716248;-0.35556;3;;
671;;;;;;;10862.8;-0.3515625;-0.000690002;-0.350739;3;;
673;;;;;;;10863.3;-0.34668;-0.000662842;-0.345886;3;;
675;;;;;;;10863.7;-0.341797;-0.000635986;-0.341003;3;;
677;;;;;;;10864.2;-0.336914;-0.000608826;-0.336182;3;;
679;;;;;;;10864.7;-0.332031;-0.000579834;-0.331329;3;;
681;;;;;;;10865.2;-0.327148;-0.000550232;-0.326355;3;;
683;;;;;;;10865.7;-0.322266;-0.000520935;-0.321503;3;;
685;;;;;;;10866.2;-0.317383;-0.000493042;-0.31665;3;;
687;;;;;;;10866.7;-0.3125;-0.00046402;-0.311768;3;;
689;;;;;;;10867.2;-0.307617;-0.000434601;-0.306885;3;;
691;;;;;;;10867.6;-0.302734;-0.000406006;-0.302002;3;;
693;;;;;;;10868.1;-0.297852;-0.000378967;-0.29715;3;;
695;;;;;;;10868.6;-0.292969;-0.000352478;-0.292267;3;;
697;;;;;;;10869.1;-0.288086;-0.000325928;-0.287415;3;;
699;;;;;;;10869.6;-0.283203;-0.000300201;-0.282532;3;;
701;;;;;;;10870.1;-0.27832;-0.00027652;-0.277618;3;;
703;;;;;;;10870.6;-0.2734375;-0.000254272;-0.272797;3;;
705;;;;;;;10871.1;-0.268555;-0.000232391;-0.267975;3;;
707;;;;;;;10871.6;-0.263672;-0.000211578;-0.263092;3;;
709;;;;;;;10872;-0.258789;-0.000192352;-0.258179;3;;
711;;;;;;;10872.5;-0.253906;-0.000174835;-0.253296;3;;
713;;;;;;;10873;-0.249023;-0.000158325;-0.248444;3;;
715;;;;;;;10873.5;-0.244141;-0.0001427;-0.2435;3;;
717;;;;;;;10874;-0.239258;-0.000128326;-0.238617;3;;
719;;;;;;;10874.5;-0.234375;-0.000115448;-0.233826;3;;
721;;;;;;;10875;-0.229492;-0.00010376;-0.228912;3;;
723;;;;;;;10875.5;-0.224609;-9.2865e-05;-0.223999;3;;
725;;;;;;;10875.9;-0.219727;-8.27942e-05;-0.219177;3;;
727;;;;;;;10876.4;-0.214844;-7.39746e-05;-0.214264;3;;
729;;;;;;;10876.9;-0.209961;-6.604e-05;-0.20932;3;;
731;;;;;;;10877.4;-0.205078;-5.87769e-05;-0.204498;3;;
733;;;;;;;10877.9;-0.200195;-5.21545e-05;-0.199646;3;;
735;;;;;;;10878.4;-0.1953125;-4.62585e-05;-0.194794;3;;
737;;;;;;;10878.9;-0.19043;-4.104e-05;-0.189911;3;;
739;;;;;;;10879.4;-0.185547;-3.63434e-05;-0.184967;3;;
741;;;;;;;10879.9;-0.180664;-3.20465e-05;-0.180145;3;;
743;;;;;;;10880.3;-0.175781;-2.8183e-05;-0.175262;3;;
745;;;;;;;10880.8;-0.170898;-2.48077e-05;-0.170349;3;;
747;;;;;;;10881.3;-0.166016;-2.18231e-05;-0.165527;3;;
749;;;;;;;10881.8;-0.161133;-1.91101e-05;-0.160675;3;;
751;;;;;;;10882.3;-0.15625;-1.66656e-05;-0.155792;3;;
753;;;;;;;10882.8;-0.151367;-1.4505e-05;-0.15094;3;;
755;;;;;;;10883.3;-0.146484;-1.25977e-05;-0.146088;3;;
757;;;;;;;10883.8;-0.141602;-1.08948e-05;-0.141205;3;;
759;;;;;;;10884.3;-0.136719;-9.38721e-06;-0.136322;3;;
761;;;;;;;10884.7;-0.131836;-8.02002e-06;-0.131439;3;;
763;;;;;;;10885.2;-0.126953;-6.81458e-06;-0.126526;3;;
765;;;;;;;10885.7;-0.12207;-5.75256e-06;-0.121613;3;;
767;;;;;;;10886.2;-0.1171875;-4.81873e-06;-0.116791;3;;
769;;;;;;;10886.7;-0.112305;-3.98865e-06;-0.111938;3;;
771;;;;;;;10887.2;-0.107422;-3.237e-06;-0.107056;3;;
773;;;;;;;10887.7;-0.102539;-2.58759e-06;-0.102142;3;;
775;;;;;;;10888.2;-0.09765625;-1.99585e-06;-0.0973511;3;;
777;;;;;;;10888.6;-0.0927734;-1.45721e-06;-0.0924072;3;;
779;;;;;;;10889.1;-0.0878906;-1.008e-06;-0.0875854;3;;
781;;;;;;;10889.6;-0.0830078;-6.03027e-07;-0.0827026;3;;
783;;;;;;;10890.1;-0.078125;-2.20032e-07;-0.0778198;3;;
785;;;;;;;10890.6;-0.0732422;1.15051e-07;-0.0730896;3;;
787;;;;;;;10891.1;-0.0683594;4.31519e-07;-0.0683289;3;;
789;;;;;;;10891.6;-0.0634766;6.9519e-07;-0.063324;3;;
791;;;;;;;10892.1;-0.05859375;9.75952e-07;-0.0584106;3;;
793;;;;;;;10892.6;-0.0537109;1.20361e-06;-0.0535889;3;;
795;;;;;;;10893;-0.0488281;1.4035e-06;-0.0484528;3;;
797;;;;;;;10893.5;-0.0439453;1.57227e-06;-0.0435699;3;;
799;;;;;;;10894;-0.0390625;1.76971e-06;-0.0387573;3;;
801;;;;;;;10894.5;-0.0341797;1.94702e-06;-0.0337524;3;;
803;;;;;;;10895;-0.0292969;2.05536e-06;-0.028894;3;;
805;;;;;;;10895.5;-0.0244141;2.16797e-06;-0.0241119;3;;
807;;;;;;;10896;-0.01953125;2.29584e-06;-0.0192566;3;;
809;;;;;;;10896.5;-0.0146484;2.40753e-06;-0.0143494;3;;
811;;;;;;;10896.9;-0.009765625;2.47742e-06;-0.00953064;3;;
813;;;;;;;10897.4;-0.00488281;2.53723e-06;-0.0046936;3;;
815;;;;;;;10897.9;0;2.57324e-06;0.000219727;3;;
817;;;;;;;10898.4;0.00488281;2.63824e-06;0.00510559;3;;
819;;;;;;;10898.9;0.009765625;2.67944e-06;0.00996094;3;;
821;;;;;;;10899.4;0.009765625;2.32544e-06;0.010022;3;;
823;;;;;;;10899.9;0.00488281;1.83289e-06;0.00511475;3;;
825;;;;;;;10900.4;0;1.49567e-06;0.000289917;3;;
827;;;;;;;10900.9;-0.00488281;1.23993e-06;-0.00464172;3;;
829;;;;;;;10901.3;-0.009765625;1.01593e-06;-0.00942383;3;;
831;;;;;;;;;;;;;
833;;;;;;;;;;;;;
835;;;;;;;;;;;;;
837;;;;;;;;;;;;;
839;;;;;;;;;;;;;
841;;;;;;;;;;;;;
843;;;;;;;;;;;;;
845;;;;;;;;;;;;;
847;;;;;;;;;;;;;
849;;;;;;;;;;;;;
851;;;;;;;;;;;;;
853;;;;;;;;;;;;;
855;;;;;;;;;;;;;
857;;;;;;;;;;;;;
859;;;;;;;;;;;;;
861;;;;;;;;;;;;;
863;;;;;;;;;;;;;
865;;;;;;;;;;;;;
867;;;;;;;;;;;;;
869;;;;;;;;;;;;;
871;;;;;;;;;;;;;
873;;;;;;;;;;;;;
875;;;;;;;;;;;;;
877;;;;;;;;;;;;;
879;;;;;;;;;;;;;
881;;;;;;;;;;;;;
883;;;;;;;;;;;;;
885;;;;;;;;;;;;;
887;;;;;;;;;;;;;
889;;;;;;;;;;;;;
891;;;;;;;;;;;;;
893;;;;;;;;;;;;;
895;;;;;;;;;;;;;
897;;;;;;;;;;;;;
899;;;;;;;;;;;;;
901;;;;;;;;;;;;;
903;;;;;;;;;;;;;
905;;;;;;;;;;;;;
907;;;;;;;;;;;;;
909;;;;;;;;;;;;;
911;;;;;;;;;;;;;
913;;;;;;;;;;;;;
915;;;;;;;;;;;;;
917;;;;;;;;;;;;;
919;;;;;;;;;;;;;
921;;;;;;;;;;;;;
923;;;;;;;;;;;;;
925;;;;;;;;;;;;;
927;;;;;;;;;;;;;
929;;;;;;;;;;;;;
931;;;;;;;;;;;;;
933;;;;;;;;;;;;;
935;;;;;;;;;;;;;
937;;;;;;;;;;;;;
939;;;;;;;;;;;;;
941;;;;;;;;;;;;;
943;;;;;;;;;;;;;
945;;;;;;;;;;;;;
947;;;;;;;;;;;;;
949;;;;;;;;;;;;;
951;;;;;;;;;;;;;
953;;;;;;;;;;;;;
955;;;;;;;;;;;;;
957;;;;;;;;;;;;;
959;;;;;;;;;;;;;
961;;;;;;;;;;;;;
963;;;;;;;;;;;;;
965;;;;;;;;;;;;;
967;;;;;;;;;;;;;
969;;;;;;;;;;;;;
971;;;;;;;;;;;;;
973;;;;;;;;;;;;;
975;;;;;;;;;;;;;
977;;;;;;;;;;;;;
979;;;;;;;;;;;;;
981;;;;;;;;;;;;;
983;;;;;;;;;;;;;
985;;;;;;;;;;;;;
987;;;;;;;;;;;;;
989;;;;;;;;;;;;;
991;;;;;;;;;;;;;
993;;;;;;;;;;;;;
995;;;;;;;;;;;;;
997;;;;;;;;;;;;;
999;;;;;;;;;;;;;
1001;;;;;;;;;;;;;
1003;;;;;;;;;;;;;
1005;;;;;;;;;;;;;
1007;;;;;;;;;;;;;
1009;;;;;;;;;;;;;
1011;;;;;;;;;;;;;
1013;;;;;;;;;;;;;
1015;;;;;;;;;;;;;
1017;;;;;;;;;;;;;
1019;;;;;;;;;;;;;
1021;;;;;;;;;;;;;
1023;;;;;;;;;;;;;
1025;;;;;;;;;;;;;
1027;;;;;;;;;;;;;
1029;;;;;;;;;;;;;
1031;;;;;;;;;;;;;
1033;;;;;;;;;;;;;
1035;;;;;;;;;;;;;
1037;;;;;;;;;;;;;
1039;;;;;;;;;;;;;
1041;;;;;;;;;;;;;
1043;;;;;;;;;;;;;
1045;;;;;;;;;;;;;
1047;;;;;;;;;;;;;
1049;;;;;;;;;;;;;
1051;;;;;;;;;;;;;
1053;;;;;;;;;;;;;
1055;;;;;;;;;;;;;
1057;;;;;;;;;;;;;
1059;;;;;;;;;;;;;
1061;;;;;;;;;;;;;
1063;;;;;;;;;;;;;
1065;;;;;;;;;;;;;
1067;;;;;;;;;;;;;
1069;;;;;;;;;;;;;
1071;;;;;;;;;;;;;
1073;;;;;;;;;;;;;
1075;;;;;;;;;;;;;
1077;;;;;;;;;;;;;
1079;;;;;;;;;;;;;
1081;;;;;;;;;;;;;
1083;;;;;;;;;;;;;
1085;;;;;;;;;;;;;
1087;;;;;;;;;;;;;
1089;;;;;;;;;;;;;
1091;;;;;;;;;;;;;
1093;;;;;;;;;;;;;
1095;;;;;;;;;;;;;
1097;;;;;;;;;;;;;
1099;;;;;;;;;;;;;
1101;;;;;;;;;;;;;
1103;;;;;;;;;;;;;
1105;;;;;;;;;;;;;
1107;;;;;;;;;;;;;
1109;;;;;;;;;;;;;
1111;;;;;;;;;;;;;
1113;;;;;;;;;;;;;
1115;;;;;;;;;;;;;
1117;;;;;;;;;;;;;
1119;;;;;;;;;;;;;
1121;;;;;;;;;;;;;
1123;;;;;;;;;;;;;
1125;;;;;;;;;;;;;
1127;;;;;;;;;;;;;
1129;;;;;;;;;;;;;
1131;;;;;;;;;;;;;
1133;;;;;;;;;;;;;
1135;;;;;;;;;;;;;
1137;;;;;;;;;;;;;
1139;;;;;;;;;;;;;
1141;;;;;;;;;;;;;
1143;;;;;;;;;;;;;
1145;;;;;;;;;;;;;
1147;;;;;;;;;;;;;
1149;;;;;;;;;;;;;
1151;;;;;;;;;;;;;
1153;;;;;;;;;;;;;
1155;;;;;;;;;;;;;
1157;;;;;;;;;;;;;
1159;;;;;;;;;;;;;
1161;;;;;;;;;;;;;
1163;;;;;;;;;;;;;
1165;;;;;;;;;;;;;
1167;;;;;;;;;;;;;
1169;;;;;;;;;;;;;
1171;;;;;;;;;;;;;
1173;;;;;;;;;;;;;
1175;;;;;;;;;;;;;
1177;;;;;;;;;;;;;
1179;;;;;;;;;;;;;
1181;;;;;;;;;;;;;
1183;;;;;;;;;;;;;
1185;;;;;;;;;;;;;
1187;;;;;;;;;;;;;
1189;;;;;;;;;;;;;
1191;;;;;;;;;;;;;
1193;;;;;;;;;;;;;
1195;;;;;;;;;;;;;
1197;;;;;;;;;;;;;
1199;;;;;;;;;;;;;
1201;;;;;;;;;;;;;
1203;;;;;;;;;;;;;
1205;;;;;;;;;;;;;
1207;;;;;;;;;;;;;
1209;;;;;;;;;;;;;
1211;;;;;;;;;;;;;
1213;;;;;;;;;;;;;
1215;;;;;;;;;;;;;
1217;;;;;;;;;;;;;
1219;;;;;;;;;;;;;
1221;;;;;;;;;;;;;
1223;;;;;;;;;;;;;
1225;;;;;;;;;;;;;
1227;;;;;;;;;;;;;
1229;;;;;;;;;;;;;
1231;;;;;;;;;;;;;
1233;;;;;;;;;;;;;
1235;;;;;;;;;;;;;
1237;;;;;;;;;;;;;
1239;;;;;;;;;;;;;
1241;;;;;;;;;;;;;
1243;;;;;;;;;;;;;
1245;;;;;;;;;;;;;
1247;;;;;;;;;;;;;
1249;;;;;;;;;;;;;
1251;;;;;;;;;;;;;
1253;;;;;;;;;;;;;
1255;;;;;;;;;;;;;
1257;;;;;;;;;;;;;
1259;;;;;;;;;;;;;
1261;;;;;;;;;;;;;
1263;;;;;;;;;;;;;
1265;;;;;;;;;;;;;
1267;;;;;;;;;;;;;
1269;;;;;;;;;;;;;
1271;;;;;;;;;;;;;
1273;;;;;;;;;;;;;
1275;;;;;;;;;;;;;
1277;;;;;;;;;;;;;
1279;;;;;;;;;;;;;
1281;;;;;;;;;;;;;
1283;;;;;;;;;;;;;
1285;;;;;;;;;;;;;
1287;;;;;;;;;;;;;
1289;;;;;;;;;;;;;
1291;;;;;;;;;;;;;
1293;;;;;;;;;;;;;
1295;;;;;;;;;;;;;
1297;;;;;;;;;;;;;
1299;;;;;;;;;;;;;
1301;;;;;;;;;;;;;
1303;;;;;;;;;;;;;
1305;;;;;;;;;;;;;
1307;;;;;;;;;;;;;
1309;;;;;;;;;;;;;
1311;;;;;;;;;;;;;
1313;;;;;;;;;;;;;
1315;;;;;;;;;;;;;
1317;;;;;;;;;;;;;
1319;;;;;;;;;;;;;
1321;;;;;;;;;;;;;
1323;;;;;;;;;;;;;
1325;;;;;;;;;;;;;
1327;;;;;;;;;;;;;
1329;;;;;;;;;;;;;
1331;;;;;;;;;;;;;
1333;;;;;;;;;;;;;
1335;;;;;;;;;;;;;
1337;;;;;;;;;;;;;
1339;;;;;;;;;;;;;
1341;;;;;;;;;;;;;
1343;;;;;;;;;;;;;
1345;;;;;;;;;;;;;
1347;;;;;;;;;;;;;
1349;;;;;;;;;;;;;
1351;;;;;;;;;;;;;
1353;;;;;;;;;;;;;
1355;;;;;;;;;;;;;
1357;;;;;;;;;;;;;
1359;;;;;;;;;;;;;
1361;;;;;;;;;;;;;
1363;;;;;;;;;;;;;
1365;;;;;;;;;;;;;
1367;;;;;;;;;;;;;
1369;;;;;;;;;;;;;
1371;;;;;;;;;;;;;
1373;;;;;;;;;;;;;
1375;;;;;;;;;;;;;
1377;;;;;;;;;;;;;
1379;;;;;;;;;;;;;
1381;;;;;;;;;;;;;
1383;;;;;;;;;;;;;
1385;;;;;;;;;;;;;
1387;;;;;;;;;;;;;
1389;;;;;;;;;;;;;
1391;;;;;;;;;;;;;
1393;;;;;;;;;;;;;
1395;;;;;;;;;;;;;
1397;;;;;;;;;;;;;
1399;;;;;;;;;;;;;
1401;;;;;;;;;;;;;
1403;;;;;;;;;;;;;
1405;;;;;;;;;;;;;
1407;;;;;;;;;;;;;
1409;;;;;;;;;;;;;
1411;;;;;;;;;;;;;
1413;;;;;;;;;;;;;
1415;;;;;;;;;;;;;
1417;;;;;;;;;;;;;
1419;;;;;;;;;;;;;
1421;;;;;;;;;;;;;
1423;;;;;;;;;;;;;
1425;;;;;;;;;;;;;
1427;;;;;;;;;;;;;
1429;;;;;;;;;;;;;
1431;;;;;;;;;;;;;
1433;;;;;;;;;;;;;
1435;;;;;;;;;;;;;
1437;;;;;;;;;;;;;
1439;;;;;;;;;;;;;
1441;;;;;;;;;;;;;
1443;;;;;;;;;;;;;
1445;;;;;;;;;;;;;
1447;;;;;;;;;;;;;
1449;;;;;;;;;;;;;
1451;;;;;;;;;;;;;
1453;;;;;;;;;;;;;
1455;;;;;;;;;;;;;
1457;;;;;;;;;;;;;
1459;;;;;;;;;;;;;
1461;;;;;;;;;;;;;
1463;;;;;;;;;;;;;
1465;;;;;;;;;;;;;
1467;;;;;;;;;;;;;
1469;;;;;;;;;;;;;
1471;;;;;;;;;;;;;
1473;;;;;;;;;;;;;
1475;;;;;;;;;;;;;
1477;;;;;;;;;;;;;
1479;;;;;;;;;;;;;
1481;;;;;;;;;;;;;
1483;;;;;;;;;;;;;
1485;;;;;;;;;;;;;
1487;;;;;;;;;;;;;
1489;;;;;;;;;;;;;
1491;;;;;;;;;;;;;
1493;;;;;;;;;;;;;
1495;;;;;;;;;;;;;
1497;;;;;;;;;;;;;
1499;;;;;;;;;;;;;
1501;;;;;;;;;;;;;
1503;;;;;;;;;;;;;
1505;;;;;;;;;;;;;
1507;;;;;;;;;;;;;
1509;;;;;;;;;;;;;
1511;;;;;;;;;;;;;
1513;;;;;;;;;;;;;
1515;;;;;;;;;;;;;
1517;;;;;;;;;;;;;
1519;;;;;;;;;;;;;
1521;;;;;;;;;;;;;
1523;;;;;;;;;;;;;
1525;;;;;;;;;;;;;
1527;;;;;;;;;;;;;
1529;;;;;;;;;;;;;
1531;;;;;;;;;;;;;
1533;;;;;;;;;;;;;
1535;;;;;;;;;;;;;
1537;;;;;;;;;;;;;
1539;;;;;;;;;;;;;
1541;;;;;;;;;;;;;
1543;;;;;;;;;;;;;
1545;;;;;;;;;;;;;
1547;;;;;;;;;;;;;
1549;;;;;;;;;;;;;
1551;;;;;;;;;;;;;
1553;;;;;;;;;;;;;
1555;;;;;;;;;;;;;
1557;;;;;;;;;;;;;
1559;;;;;;;;;;;;;
1561;;;;;;;;;;;;;
1563;;;;;;;;;;;;;
1565;;;;;;;;;;;;;
1567;;;;;;;;;;;;;
1569;;;;;;;;;;;;;
1571;;;;;;;;;;;;;
1573;;;;;;;;;;;;;
1575;;;;;;;;;;;;;
1577;;;;;;;;;;;;;
1579;;;;;;;;;;;;;
1581;;;;;;;;;;;;;
1583;;;;;;;;;;;;;
1585;;;;;;;;;;;;;
1587;;;;;;;;;;;;;
1589;;;;;;;;;;;;;
1591;;;;;;;;;;;;;
1593;;;;;;;;;;;;;
1595;;;;;;;;;;;;;
1597;;;;;;;;;;;;;
1599;;;;;;;;;;;;;
1601;;;;;;;;;;;;;
1603;;;;;;;;;;;;;
1605;;;;;;;;;;;;;
1607;;;;;;;;;;;;;
1609;;;;;;;;;;;;;
1611;;;;;;;;;;;;;
1613;;;;;;;;;;;;;
1615;;;;;;;;;;;;;
1617;;;;;;;;;;;;;
1619;;;;;;;;;;;;;
1621;;;;;;;;;;;;;
1623;;;;;;;;;;;;;
1625;;;;;;;;;;;;;
1627;;;;;;;;;;;;;
1629;;;;;;;;;;;;;
1631;;;;;;;;;;;;;
1633;;;;;;;;;;;;;
1635;;;;;;;;;;;;;
1637;;;;;;;;;;;;;
1639;;;;;;;;;;;;;
1641;;;;;;;;;;;;;
1643;;;;;;;;;;;;;
1645;;;;;;;;;;;;;
1647;;;;;;;;;;;;;
1649;;;;;;;;;;;;;
1651;;;;;;;;;;;;;
1653;;;;;;;;;;;;;
1655;;;;;;;;;;;;;
1657;;;;;;;;;;;;;
1659;;;;;;;;;;;;;
1661;;;;;;;;;;;;;
1663;;;;;;;;;;;;;
1665;;;;;;;;;;;;;
1667;;;;;;;;;;;;;
1669;;;;;;;;;;;;;
1671;;;;;;;;;;;;;
1673;;;;;;;;;;;;;
1675;;;;;;;;;;;;;
1677;;;;;;;;;;;;;
1679;;;;;;;;;;;;;
1681;;;;;;;;;;;;;
1683;;;;;;;;;;;;;
1685;;;;;;;;;;;;;
1687;;;;;;;;;;;;;
1689;;;;;;;;;;;;;
1691;;;;;;;;;;;;;
1693;;;;;;;;;;;;;
1695;;;;;;;;;;;;;
1697;;;;;;;;;;;;;
1699;;;;;;;;;;;;;
1701;;;;;;;;;;;;;
1703;;;;;;;;;;;;;
1705;;;;;;;;;;;;;
1707;;;;;;;;;;;;;
1709;;;;;;;;;;;;;
1711;;;;;;;;;;;;;
1713;;;;;;;;;;;;;
1715;;;;;;;;;;;;;
1717;;;;;;;;;;;;;
1719;;;;;;;;;;;;;
1721;;;;;;;;;;;;;
1723;;;;;;;;;;;;;
1725;;;;;;;;;;;;;
1727;;;;;;;;;;;;;
1729;;;;;;;;;;;;;
1731;;;;;;;;;;;;;
1733;;;;;;;;;;;;;
1735;;;;;;;;;;;;;
1737;;;;;;;;;;;;;
1739;;;;;;;;;;;;;
1741;;;;;;;;;;;;;
1743;;;;;;;;;;;;;
1745;;;;;;;;;;;;;
1747;;;;;;;;;;;;;
1749;;;;;;;;;;;;;
1751;;;;;;;;;;;;;
1753;;;;;;;;;;;;;
1755;;;;;;;;;;;;;
1757;;;;;;;;;;;;;
1759;;;;;;;;;;;;;
1761;;;;;;;;;;;;;
1763;;;;;;;;;;;;;
1765;;;;;;;;;;;;;
1767;;;;;;;;;;;;;
1769;;;;;;;;;;;;;
1771;;;;;;;;;;;;;
1773;;;;;;;;;;;;;
1775;;;;;;;;;;;;;
1777;;;;;;;;;;;;;
1779;;;;;;;;;;;;;
1781;;;;;;;;;;;;;
1783;;;;;;;;;;;;;
1785;;;;;;;;;;;;;
1787;;;;;;;;;;;;;
1789;;;;;;;;;;;;;
1791;;;;;;;;;;;;;
1793;;;;;;;;;;;;;
1795;;;;;;;;;;;;;
1797;;;;;;;;;;;;;
1799;;;;;;;;;;;;;
1801;;;;;;;;;;;;;
1803;;;;;;;;;;;;;
1805;;;;;;;;;;;;;
1807;;;;;;;;;;;;;
1809;;;;;;;;;;;;;
1811;;;;;;;;;;;;;
1813;;;;;;;;;;;;;
1815;;;;;;;;;;;;;
1817;;;;;;;;;;;;;
1819;;;;;;;;;;;;;
1821;;;;;;;;;;;;;
1823;;;;;;;;;;;;;
1825;;;;;;;;;;;;;
1827;;;;;;;;;;;;;
1829;;;;;;;;;;;;;
1831;;;;;;;;;;;;;
1833;;;;;;;;;;;;;
1835;;;;;;;;;;;;;
1837;;;;;;;;;;;;;
1839;;;;;;;;;;;;;
1841;;;;;;;;;;;;;
1843;;;;;;;;;;;;;
1845;;;;;;;;;;;;;
1847;;;;;;;;;;;;;
1849;;;;;;;;;;;;;
1851;;;;;;;;;;;;;
1853;;;;;;;;;;;;;
1855;;;;;;;;;;;;;
1857;;;;;;;;;;;;;
1859;;;;;;;;;;;;;
1861;;;;;;;;;;;;;
1863;;;;;;;;;;;;;
1865;;;;;;;;;;;;;
1867;;;;;;;;;;;;;
1869;;;;;;;;;;;;;
1871;;;;;;;;;;;;;
1873;;;;;;;;;;;;;
1875;;;;;;;;;;;;;
1877;;;;;;;;;;;;;
1879;;;;;;;;;;;;;
1881;;;;;;;;;;;;;
1883;;;;;;;;;;;;;
1885;;;;;;;;;;;;;
1887;;;;;;;;;;;;;
1889;;;;;;;;;;;;;
1891;;;;;;;;;;;;;
1893;;;;;;;;;;;;;
1895;;;;;;;;;;;;;
1897;;;;;;;;;;;;;
1899;;;;;;;;;;;;;
1901;;;;;;;;;;;;;
1903;;;;;;;;;;;;;
1905;;;;;;;;;;;;;
1907;;;;;;;;;;;;;
1909;;;;;;;;;;;;;
1911;;;;;;;;;;;;;
1913;;;;;;;;;;;;;
1915;;;;;;;;;;;;;
1917;;;;;;;;;;;;;
1919;;;;;;;;;;;;;
1921;;;;;;;;;;;;;
1923;;;;;;;;;;;;;
1925;;;;;;;;;;;;;
1927;;;;;;;;;;;;;
1929;;;;;;;;;;;;;
1931;;;;;;;;;;;;;
1933;;;;;;;;;;;;;
1935;;;;;;;;;;;;;
1937;;;;;;;;;;;;;
1939;;;;;;;;;;;;;
1941;;;;;;;;;;;;;
1943;;;;;;;;;;;;;
1945;;;;;;;;;;;;;
1947;;;;;;;;;;;;;
1949;;;;;;;;;;;;;
1951;;;;;;;;;;;;;
1953;;;;;;;;;;;;;
1955;;;;;;;;;;;;;
1957;;;;;;;;;;;;;
1959;;;;;;;;;;;;;
1961;;;;;;;;;;;;;
1963;;;;;;;;;;;;;
1965;;;;;;;;;;;;;
1967;;;;;;;;;;;;;
1969;;;;;;;;;;;;;
1971;;;;;;;;;;;;;
1973;;;;;;;;;;;;;
1975;;;;;;;;;;;;;
1977;;;;;;;;;;;;;
1979;;;;;;;;;;;;;
1981;;;;;;;;;;;;;
1983;;;;;;;;;;;;;
1985;;;;;;;;;;;;;
1987;;;;;;;;;;;;;
1989;;;;;;;;;;;;;
1991;;;;;;;;;;;;;
1993;;;;;;;;;;;;;
1995;;;;;;;;;;;;;
1997;;;;;;;;;;;;;
1999;;;;;;;;;;;;;
2001;;;;;;;;;;;;;
2003;;;;;;;;;;;;;
2005;;;;;;;;;;;;;
2007;;;;;;;;;;;;;
2009;;;;;;;;;;;;;
2011;;;;;;;;;;;;;
2013;;;;;;;;;;;;;
2015;;;;;;;;;;;;;
2017;;;;;;;;;;;;;
2019;;;;;;;;;;;;;
2021;;;;;;;;;;;;;
2023;;;;;;;;;;;;;
2025;;;;;;;;;;;;;
2027;;;;;;;;;;;;;
2029;;;;;;;;;;;;;
2031;;;;;;;;;;;;;
2033;;;;;;;;;;;;;
2035;;;;;;;;;;;;;
2037;;;;;;;;;;;;;
2039;;;;;;;;;;;;;
2041;;;;;;;;;;;;;
2043;;;;;;;;;;;;;
2045;;;;;;;;;;;;;
2047;;;;;;;;;;;;;
2049;;;;;;;;;;;;;
2051;;;;;;;;;;;;;
2053;;;;;;;;;;;;;
2055;;;;;;;;;;;;;
2057;;;;;;;;;;;;;
2059;;;;;;;;;;;;;
2061;;;;;;;;;;;;;
2063;;;;;;;;;;;;;
2065;;;;;;;;;;;;;
2067;;;;;;;;;;;;;
2069;;;;;;;;;;;;;
2071;;;;;;;;;;;;;
2073;;;;;;;;;;;;;
2075;;;;;;;;;;;;;
2077;;;;;;;;;;;;;
2079;;;;;;;;;;;;;
2081;;;;;;;;;;;;;
2083;;;;;;;;;;;;;
2085;;;;;;;;;;;;;
2087;;;;;;;;;;;;;
2089;;;;;;;;;;;;;
2091;;;;;;;;;;;;;
2093;;;;;;;;;;;;;
2095;;;;;;;;;;;;;
2097;;;;;;;;;;;;;
2099;;;;;;;;;;;;;
2101;;;;;;;;;;;;;
2103;;;;;;;;;;;;;
2105;;;;;;;;;;;;;
2107;;;;;;;;;;;;;
2109;;;;;;;;;;;;;
2111;;;;;;;;;;;;;
2113;;;;;;;;;;;;;
2115;;;;;;;;;;;;;
2117;;;;;;;;;;;;;
2119;;;;;;;;;;;;;
2121;;;;;;;;;;;;;
2123;;;;;;;;;;;;;
2125;;;;;;;;;;;;;
2127;;;;;;;;;;;;;
2129;;;;;;;;;;;;;
2131;;;;;;;;;;;;;
2133;;;;;;;;;;;;;
2135;;;;;;;;;;;;;
2137;;;;;;;;;;;;;
2139;;;;;;;;;;;;;
2141;;;;;;;;;;;;;
2143;;;;;;;;;;;;;
2145;;;;;;;;;;;;;
2147;;;;;;;;;;;;;
2149;;;;;;;;;;;;;
2151;;;;;;;;;;;;;
2153;;;;;;;;;;;;;
2155;;;;;;;;;;;;;
2157;;;;;;;;;;;;;
2159;;;;;;;;;;;;;
2161;;;;;;;;;;;;;
2163;;;;;;;;;;;;;
2165;;;;;;;;;;;;;
2167;;;;;;;;;;;;;
2169;;;;;;;;;;;;;
2171;;;;;;;;;;;;;
2173;;;;;;;;;;;;;
2175;;;;;;;;;;;;;
2177;;;;;;;;;;;;;
2179;;;;;;;;;;;;;
2181;;;;;;;;;;;;;
2183;;;;;;;;;;;;;
2185;;;;;;;;;;;;;
2187;;;;;;;;;;;;;
2189;;;;;;;;;;;;;
2191;;;;;;;;;;;;;
2193;;;;;;;;;;;;;
2195;;;;;;;;;;;;;
2197;;;;;;;;;;;;;
2199;;;;;;;;;;;;;
2201;;;;;;;;;;;;;
2203;;;;;;;;;;;;;
2205;;;;;;;;;;;;;
2207;;;;;;;;;;;;;
2209;;;;;;;;;;;;;
2211;;;;;;;;;;;;;
2213;;;;;;;;;;;;;
2215;;;;;;;;;;;;;
2217;;;;;;;;;;;;;
2219;;;;;;;;;;;;;
2221;;;;;;;;;;;;;
2223;;;;;;;;;;;;;
2225;;;;;;;;;;;;;
2227;;;;;;;;;;;;;
2229;;;;;;;;;;;;;
2231;;;;;;;;;;;;;
2233;;;;;;;;;;;;;
2235;;;;;;;;;;;;;
2237;;;;;;;;;;;;;
2239;;;;;;;;;;;;;
2241;;;;;;;;;;;;;
2243;;;;;;;;;;;;;
2245;;;;;;;;;;;;;
2247;;;;;;;;;;;;;
2249;;;;;;;;;;;;;
2251;;;;;;;;;;;;;
2253;;;;;;;;;;;;;
2255;;;;;;;;;;;;;
2257;;;;;;;;;;;;;
2259;;;;;;;;;;;;;
2261;;;;;;;;;;;;;
2263;;;;;;;;;;;;;
2265;;;;;;;;;;;;;
2267;;;;;;;;;;;;;
2269;;;;;;;;;;;;;
2271;;;;;;;;;;;;;
2273;;;;;;;;;;;;;
2275;;;;;;;;;;;;;
2277;;;;;;;;;;;;;
2279;;;;;;;;;;;;;
2281;;;;;;;;;;;;;
2283;;;;;;;;;;;;;
2285;;;;;;;;;;;;;
2287;;;;;;;;;;;;;
2289;;;;;;;;;;;;;
2291;;;;;;;;;;;;;
2293;;;;;;;;;;;;;
2295;;;;;;;;;;;;;
2297;;;;;;;;;;;;;
2299;;;;;;;;;;;;;
2301;;;;;;;;;;;;;
2303;;;;;;;;;;;;;
2305;;;;;;;;;;;;;
2307;;;;;;;;;;;;;
2309;;;;;;;;;;;;;
2311;;;;;;;;;;;;;
2313;;;;;;;;;;;;;
2315;;;;;;;;;;;;;
2317;;;;;;;;;;;;;
2319;;;;;;;;;;;;;
2321;;;;;;;;;;;;;
2323;;;;;;;;;;;;;
2325;;;;;;;;;;;;;
2327;;;;;;;;;;;;;
2329;;;;;;;;;;;;;
2331;;;;;;;;;;;;;
2333;;;;;;;;;;;;;
2335;;;;;;;;;;;;;
2337;;;;;;;;;;;;;
2339;;;;;;;;;;;;;
2341;;;;;;;;;;;;;
2343;;;;;;;;;;;;;
2345;;;;;;;;;;;;;
2347;;;;;;;;;;;;;
2349;;;;;;;;;;;;;
2351;;;;;;;;;;;;;
2353;;;;;;;;;;;;;
2355;;;;;;;;;;;;;
2357;;;;;;;;;;;;;
2359;;;;;;;;;;;;;
2361;;;;;;;;;;;;;
2363;;;;;;;;;;;;;
2365;;;;;;;;;;;;;
2367;;;;;;;;;;;;;
2369;;;;;;;;;;;;;
2371;;;;;;;;;;;;;
2373;;;;;;;;;;;;;
2375;;;;;;;;;;;;;
2377;;;;;;;;;;;;;
2379;;;;;;;;;;;;;
2381;;;;;;;;;;;;;
2383;;;;;;;;;;;;;
2385;;;;;;;;;;;;;
2387;;;;;;;;;;;;;
2389;;;;;;;;;;;;;
2391;;;;;;;;;;;;;
2393;;;;;;;;;;;;;
2395;;;;;;;;;;;;;
2397;;;;;;;;;;;;;
2399;;;;;;;;;;;;;
2401;;;;;;;;;;;;;
2403;;;;;;;;;;;;;
2405;;;;;;;;;;;;;
2407;;;;;;;;;;;;;
2409;;;;;;;;;;;;;
2411;;;;;;;;;;;;;
2413;;;;;;;;;;;;;
2415;;;;;;;;;;;;;
2417;;;;;;;;;;;;;
2419;;;;;;;;;;;;;
2421;;;;;;;;;;;;;
2423;;;;;;;;;;;;;
2425;;;;;;;;;;;;;
2427;;;;;;;;;;;;;
2429;;;;;;;;;;;;;
2431;;;;;;;;;;;;;
2433;;;;;;;;;;;;;
2435;;;;;;;;;;;;;
2437;;;;;;;;;;;;;
2439;;;;;;;;;;;;;
2441;;;;;;;;;;;;;
2443;;;;;;;;;;;;;
2445;;;;;;;;;;;;;
2447;;;;;;;;;;;;;
2449;;;;;;;;;;;;;
2451;;;;;;;;;;;;;
2453;;;;;;;;;;;;;
2455;;;;;;;;;;;;;
2457;;;;;;;;;;;;;
2459;;;;;;;;;;;;;
2461;;;;;;;;;;;;;
2463;;;;;;;;;;;;;
2465;;;;;;;;;;;;;
2467;;;;;;;;;;;;;
2469;;;;;;;;;;;;;
2471;;;;;;;;;;;;;
2473;;;;;;;;;;;;;
2475;;;;;;;;;;;;;
2477;;;;;;;;;;;;;
2479;;;;;;;;;;;;;
2481;;;;;;;;;;;;;
2483;;;;;;;;;;;;;
2485;;;;;;;;;;;;;
2487;;;;;;;;;;;;;
2489;;;;;;;;;;;;;
2491;;;;;;;;;;;;;
2493;;;;;;;;;;;;;
2495;;;;;;;;;;;;;