File: carbon_superP/O2_1600rpm.txt
Index;Column 2 (V);Column 3 (V);Column 4 (V);Column 5 (V);Column 6 (V/s);Column 7 (V);Time (s);Potential applied (V);WE(1).Current (A);WE(1).Potential (V);Scan;Column 13 (RPM);ω (rad/s);Frequency (Hz);Z' (Ω);-Z'' (Ω);Z (Ω);-Phase (°);Time (s);Y' (Mho);-Y'' (Mho)
1;0;0.01;-1;-0.01;0.01;-0.00244;15867.2;-0.0146484;5.70679e-07;-0.0144653;3;1600;167.552;100000;31.4539;2.8795;31.5854;5.23066;15250.4;0.0315283;0.00288632
3;;;;;;;15867.7;-0.01953125;4.20227e-07;-0.0192444;3;;;63096;30.0331;1.63056;30.0773;3.10766;15254.3;0.0331988;0.00180243
5;;;;;;;15868.2;-0.0244141;2.92358e-07;-0.0241516;3;;;39811;29.462;1.10217;29.4826;2.14243;15258.1;0.0338946;0.00126799
7;;;;;;;15868.7;-0.0292969;1.65405e-07;-0.0290222;3;;;25119;29.2834;0.871959;29.2964;1.70557;15261.7;0.0341188;0.00101594
9;;;;;;;15869.2;-0.0341797;4.21143e-08;-0.033902;3;;;15849;29.2852;0.793843;29.2959;1.55275;15265.3;0.0341219;0.000924952
11;;;;;;;15869.7;-0.0390625;-6.98853e-08;-0.0387695;3;;;10000;29.375;0.8159;29.3863;1.591;15270.4;0.0340163;0.000944814
13;;;;;;;15870.2;-0.0439453;-1.7334e-07;-0.0436676;3;;;6309.6;29.4724;0.912447;29.4865;1.77328;15274;0.0338976;0.00104945
15;;;;;;;15870.7;-0.0488281;-2.91138e-07;-0.0484283;3;;;3981.1;29.6701;1.08154;29.6898;2.08762;15277.6;0.0336593;0.00122695
17;;;;;;;15871.2;-0.0537109;-4.10767e-07;-0.0534058;3;;;2511.9;29.8755;1.33685;29.9054;2.56213;15281.3;0.0334053;0.0014948
19;;;;;;;15871.6;-0.05859375;-5.51453e-07;-0.0583496;3;;;1584.9;30.1743;1.69542;30.2218;3.21594;15284.9;0.0330365;0.00185625
21;;;;;;;15872.1;-0.0634766;-7.1106e-07;-0.0632324;3;;;1000;30.5455;2.18497;30.6236;4.09149;15288.4;0.0325714;0.00232988
23;;;;;;;15872.6;-0.0683594;-8.41675e-07;-0.0679932;3;;;630.96;31.0651;2.82879;31.1937;5.203;15292.2;0.0319257;0.00290715
25;;;;;;;15873.1;-0.0732422;-1.00647e-06;-0.0728455;3;;;398.11;31.7484;3.64328;31.9568;6.54631;15295.8;0.0310882;0.00356751
27;;;;;;;15873.6;-0.078125;-1.19171e-06;-0.0776978;3;;;251.19;32.5434;4.66933;32.8767;8.16507;15299.4;0.0301084;0.00431995
29;;;;;;;15874.1;-0.0830078;-1.40625E-06;-0.0826111;3;;;158.49;33.3759;6.07138;33.9236;10.3099;15303.1;0.029002;0.00527574
31;;;;;;;15874.6;-0.0878906;-1.60706e-06;-0.0874939;3;;;100;34.2224;8.12318;35.1733;13.3529;15306.8;0.0276621;0.006566
33;;;;;;;15875.1;-0.0927734;-1.87195e-06;-0.0922852;3;;;63.096;35.0215;11.2958;36.7981;17.8765;15310.7;0.0258633;0.0083419
35;;;;;;;15875.5;-0.09765625;-2.14996e-06;-0.0969849;3;;;39.811;35.7333;16.3503;39.2963;24.5871;15331.1;0.0231403;0.0105882
37;;;;;;;15876;-0.102539;-2.49451e-06;-0.10199;3;;;25.119;36.3992;24.4461;43.8465;33.8857;15335.4;0.0189331;0.0127157
39;;;;;;;15876.5;-0.107422;-2.84546e-06;-0.10675;3;;;15.849;37.1068;37.344;52.6449;45.1825;15340.2;0.0133888;0.0134744
41;;;;;;;15877;-0.112305;-3.26599e-06;-0.111938;3;;;10;37.8795;57.961;69.2412;56.834;15345.6;0.00790089;0.0120895
43;;;;;;;15877.5;-0.1171875;-3.73535e-06;-0.11676;3;;;6.3096;38.9491;90.4565;98.4856;66.7041;15351.3;0.00401561;0.00932598
45;;;;;;;15878;-0.12207;-4.26025e-06;-0.121582;3;;;3.9811;40.7493;141.863;147.599;73.9735;15357.6;0.00187048;0.00651179
47;;;;;;;15878.5;-0.126953;-4.84009e-06;-0.126556;3;;;2.5119;43.7952;222.473;226.743;78.8634;15363.9;0.000851842;0.00432723
49;;;;;;;15879;-0.131836;-5.55115e-06;-0.131409;3;;;1.5849;49.212;349.092;352.544;81.9758;15370.3;0.000395954;0.00280876
51;;;;;;;15879.5;-0.136719;-6.3446e-06;-0.136261;3;;;1;58.8532;547.443;550.597;83.8639;15379.8;0.000194134;0.0018058
53;;;;;;;15879.9;-0.141602;-7.22351e-06;-0.141113;3;;;0.63096;75.7527;857.255;860.595;84.9501;15387.5;0.000102282;0.00115748
55;;;;;;;15880.4;-0.146484;-8.2489e-06;-0.146027;3;;;0.39811;105.682;1341.29;1345.45;85.4949;15396.6;5.83801e-05;0.00074095
57;;;;;;;15880.9;-0.151367;-9.39331e-06;-0.150909;3;;;0.25119;158.607;2092.63;2098.64;85.6657;15407.9;3.60122e-05;0.000475137
59;;;;;;;15881.4;-0.15625;-1.0672e-05;-0.15567;3;;;0.15849;249.415;3260.35;3269.88;85.6254;15422.4;2.33271e-05;0.000304931
61;;;;;;;15881.9;-0.161133;-1.2146e-05;-0.160583;3;;;0.1;411.736;5068.97;5085.67;85.3563;15442.2;1.59192e-05;0.000195985
63;;;;;;;15882.4;-0.166016;-1.38031e-05;-0.165436;3;;;;;;;;;;
65;;;;;;;15882.9;-0.170898;-1.56677e-05;-0.170227;3;;;;;;;;;;
67;;;;;;;15883.4;-0.175781;-1.77948e-05;-0.17514;3;;;;;;;;;;
69;;;;;;;15883.8;-0.180664;-2.02179e-05;-0.179932;3;;;;;;;;;;
71;;;;;;;15884.3;-0.185547;-2.29553e-05;-0.184875;3;;;;;;;;;;
73;;;;;;;15884.8;-0.19043;-2.60315e-05;-0.189545;3;;;;;;;;;;
75;;;;;;;15885.3;-0.1953125;-2.95319e-05;-0.194458;3;;;;;;;;;;
77;;;;;;;15885.8;-0.200195;-3.3432e-05;-0.199677;3;;;;;;;;;;
79;;;;;;;15886.3;-0.205078;-3.79333e-05;-0.204468;3;;;;;;;;;;
81;;;;;;;15886.8;-0.209961;-4.30176e-05;-0.209351;3;;;;;;;;;;
83;;;;;;;15887.3;-0.214844;-4.87366e-05;-0.214294;3;;;;;;;;;;
85;;;;;;;15887.8;-0.219727;-5.52673e-05;-0.219116;3;;;;;;;;;;
87;;;;;;;15888.2;-0.224609;-6.26526e-05;-0.22403;3;;;;;;;;;;
89;;;;;;;15888.7;-0.229492;-7.10449e-05;-0.228882;3;;;;;;;;;;
91;;;;;;;15889.2;-0.234375;-8.04749e-05;-0.233734;3;;;;;;;;;;
93;;;;;;;15889.7;-0.239258;-9.11255e-05;-0.238617;3;;;;;;;;;;
95;;;;;;;15890.2;-0.244141;-0.00010318;-0.2435;3;;;;;;;;;;
97;;;;;;;15890.7;-0.249023;-0.00011673;-0.248322;3;;;;;;;;;;
99;;;;;;;15891.2;-0.253906;-0.000131958;-0.253143;3;;;;;;;;;;
101;;;;;;;15891.7;-0.258789;-0.000148895;-0.258026;3;;;;;;;;;;
103;;;;;;;15892.2;-0.263672;-0.000167786;-0.262878;3;;;;;;;;;;
105;;;;;;;15892.6;-0.268555;-0.000188629;-0.267731;3;;;;;;;;;;
107;;;;;;;15893.1;-0.2734375;-0.000211517;-0.272614;3;;;;;;;;;;
109;;;;;;;15893.6;-0.27832;-0.00023645;-0.277374;3;;;;;;;;;;
111;;;;;;;15894.1;-0.283203;-0.00026358;-0.282196;3;;;;;;;;;;
113;;;;;;;15894.6;-0.288086;-0.000292786;-0.287018;3;;;;;;;;;;
115;;;;;;;15895.1;-0.292969;-0.000324127;-0.292297;3;;;;;;;;;;
117;;;;;;;15895.6;-0.297852;-0.000357117;-0.29715;3;;;;;;;;;;
119;;;;;;;15896.1;-0.302734;-0.000391968;-0.302002;3;;;;;;;;;;
121;;;;;;;15896.5;-0.307617;-0.000428345;-0.306915;3;;;;;;;;;;
123;;;;;;;15897;-0.3125;-0.000465973;-0.311768;3;;;;;;;;;;
125;;;;;;;15897.5;-0.317383;-0.000504456;-0.31665;3;;;;;;;;;;
127;;;;;;;15898;-0.322266;-0.000543823;-0.321533;3;;;;;;;;;;
129;;;;;;;15898.5;-0.327148;-0.000583801;-0.326385;3;;;;;;;;;;
131;;;;;;;15899;-0.332031;-0.000623779;-0.331268;3;;;;;;;;;;
133;;;;;;;15899.5;-0.336914;-0.000663452;-0.336121;3;;;;;;;;;;
135;;;;;;;15900;-0.341797;-0.00070282;-0.340973;3;;;;;;;;;;
137;;;;;;;15900.5;-0.34668;-0.000741272;-0.345886;3;;;;;;;;;;
139;;;;;;;15900.9;-0.3515625;-0.000778809;-0.350769;3;;;;;;;;;;
141;;;;;;;15901.4;-0.356445;-0.000814514;-0.35556;3;;;;;;;;;;
143;;;;;;;15901.9;-0.361328;-0.000848999;-0.360504;3;;;;;;;;;;
145;;;;;;;15902.4;-0.366211;-0.000881653;-0.365387;3;;;;;;;;;;
147;;;;;;;15902.9;-0.371094;-0.00091217;-0.37027;3;;;;;;;;;;
149;;;;;;;15903.4;-0.375977;-0.000940247;-0.375031;3;;;;;;;;;;
151;;;;;;;15903.9;-0.380859;-0.000966492;-0.379944;3;;;;;;;;;;
153;;;;;;;15904.4;-0.385742;-0.000990601;-0.384827;3;;;;;;;;;;
155;;;;;;;15904.8;-0.390625;-0.00101257;-0.389679;3;;;;;;;;;;
157;;;;;;;15905.3;-0.395508;-0.00103241;-0.394623;3;;;;;;;;;;
159;;;;;;;15905.8;-0.400391;-0.00105042;-0.399414;3;;;;;;;;;;
161;;;;;;;15906.3;-0.405273;-0.0010675;-0.404327;3;;;;;;;;;;
163;;;;;;;15906.8;-0.410156;-0.00108246;-0.40921;3;;;;;;;;;;
165;;;;;;;15907.3;-0.415039;-0.00109589;-0.4140625;3;;;;;;;;;;
167;;;;;;;15907.8;-0.419922;-0.00110901;-0.418976;3;;;;;;;;;;
169;;;;;;;15908.3;-0.424805;-0.00112122;-0.423828;3;;;;;;;;;;
171;;;;;;;15908.8;-0.4296875;-0.00113129;-0.428711;3;;;;;;;;;;
173;;;;;;;15909.2;-0.43457;-0.00114075;-0.433563;3;;;;;;;;;;
175;;;;;;;15909.7;-0.439453;-0.0011499;-0.438446;3;;;;;;;;;;
177;;;;;;;15910.2;-0.444336;-0.00115906;-0.443298;3;;;;;;;;;;
179;;;;;;;15910.7;-0.449219;-0.00116669;-0.448151;3;;;;;;;;;;
181;;;;;;;15911.2;-0.454102;-0.00117432;-0.453094;3;;;;;;;;;;
183;;;;;;;15911.7;-0.458984;-0.00118256;-0.457916;3;;;;;;;;;;
185;;;;;;;15912.2;-0.463867;-0.00118835;-0.46283;3;;;;;;;;;;
187;;;;;;;15912.7;-0.46875;-0.00119537;-0.467682;3;;;;;;;;;;
189;;;;;;;15913.1;-0.473633;-0.00120087;-0.472504;3;;;;;;;;;;
191;;;;;;;15913.6;-0.478516;-0.00120728;-0.477417;3;;;;;;;;;;
193;;;;;;;15914.1;-0.483398;-0.00121185;-0.482269;3;;;;;;;;;;
195;;;;;;;15914.6;-0.488281;-0.00121643;-0.487183;3;;;;;;;;;;
197;;;;;;;15915.1;-0.493164;-0.0012207;-0.492096;3;;;;;;;;;;
199;;;;;;;15915.6;-0.498047;-0.00122467;-0.496857;3;;;;;;;;;;
201;;;;;;;15916.1;-0.50293;-0.00122955;-0.501831;3;;;;;;;;;;
203;;;;;;;15916.6;-0.5078125;-0.00123383;-0.506683;3;;;;;;;;;;
205;;;;;;;15917.1;-0.512695;-0.00123657;-0.511597;3;;;;;;;;;;
207;;;;;;;15917.5;-0.517578;-0.00124054;-0.516418;3;;;;;;;;;;
209;;;;;;;15918;-0.522461;-0.00124512;-0.52124;3;;;;;;;;;;
211;;;;;;;15918.5;-0.527344;-0.00124634;-0.526093;3;;;;;;;;;;
213;;;;;;;15919;-0.532227;-0.00125;-0.531097;3;;;;;;;;;;
215;;;;;;;15919.5;-0.537109;-0.00125183;-0.535889;3;;;;;;;;;;
217;;;;;;;15920;-0.541992;-0.00125549;-0.540802;3;;;;;;;;;;
219;;;;;;;15920.5;-0.546875;-0.00125732;-0.545624;3;;;;;;;;;;
221;;;;;;;15921;-0.551758;-0.00125916;-0.550507;3;;;;;;;;;;
223;;;;;;;15921.4;-0.556641;-0.0012619;-0.55545;3;;;;;;;;;;
225;;;;;;;15921.9;-0.561523;-0.00126373;-0.560272;3;;;;;;;;;;
227;;;;;;;15922.4;-0.566406;-0.00126526;-0.565155;3;;;;;;;;;;
229;;;;;;;15922.9;-0.571289;-0.00126648;-0.570038;3;;;;;;;;;;
231;;;;;;;15923.4;-0.576172;-0.00126648;-0.57486;3;;;;;;;;;;
233;;;;;;;15923.9;-0.581055;-0.00126923;-0.579742;3;;;;;;;;;;
235;;;;;;;15924.4;-0.5859375;-0.00126923;-0.584686;3;;;;;;;;;;
237;;;;;;;15924.9;-0.59082;-0.00127014;-0.589447;3;;;;;;;;;;
239;;;;;;;15925.4;-0.595703;-0.00127136;-0.594421;3;;;;;;;;;;
241;;;;;;;15925.8;-0.600586;-0.00127167;-0.599213;3;;;;;;;;;;
243;;;;;;;15926.3;-0.605469;-0.00127258;-0.604126;3;;;;;;;;;;
245;;;;;;;15926.8;-0.610352;-0.00127411;-0.609039;3;;;;;;;;;;
247;;;;;;;15927.3;-0.615234;-0.00127258;-0.613922;3;;;;;;;;;;
249;;;;;;;15927.8;-0.620117;-0.00127258;-0.618774;3;;;;;;;;;;
251;;;;;;;15928.3;-0.625;-0.00127228;-0.623688;3;;;;;;;;;;
253;;;;;;;15928.8;-0.629883;-0.00127258;-0.62854;3;;;;;;;;;;
255;;;;;;;15929.3;-0.634766;-0.00127106;-0.633423;3;;;;;;;;;;
257;;;;;;;15929.7;-0.639648;-0.00127228;-0.638275;3;;;;;;;;;;
259;;;;;;;15930.2;-0.644531;-0.00127167;-0.643158;3;;;;;;;;;;
261;;;;;;;15930.7;-0.649414;-0.00127136;-0.648071;3;;;;;;;;;;
263;;;;;;;15931.2;-0.654297;-0.00127106;-0.652985;3;;;;;;;;;;
265;;;;;;;15931.7;-0.65918;-0.00126984;-0.657837;3;;;;;;;;;;
267;;;;;;;15932.2;-0.6640625;-0.00126831;-0.662781;3;;;;;;;;;;
269;;;;;;;15932.7;-0.668945;-0.00126801;-0.667572;3;;;;;;;;;;
271;;;;;;;15933.2;-0.673828;-0.00126709;-0.672485;3;;;;;;;;;;
273;;;;;;;15933.7;-0.678711;-0.00126526;-0.677307;3;;;;;;;;;;
275;;;;;;;15934.1;-0.683594;-0.00126434;-0.68219;3;;;;;;;;;;
277;;;;;;;15934.6;-0.688477;-0.00126312;-0.687103;3;;;;;;;;;;
279;;;;;;;15935.1;-0.693359;-0.0012616;-0.691956;3;;;;;;;;;;
281;;;;;;;15935.6;-0.698242;-0.00126099;-0.69696;3;;;;;;;;;;
283;;;;;;;15936.1;-0.703125;-0.00125946;-0.701752;3;;;;;;;;;;
285;;;;;;;15936.6;-0.708008;-0.00125885;-0.706604;3;;;;;;;;;;
287;;;;;;;15937.1;-0.712891;-0.00125702;-0.711609;3;;;;;;;;;;
289;;;;;;;15937.6;-0.717773;-0.0012558;-0.716431;3;;;;;;;;;;
291;;;;;;;15938;-0.722656;-0.00125305;-0.721313;3;;;;;;;;;;
293;;;;;;;15938.5;-0.727539;-0.00125153;-0.726166;3;;;;;;;;;;
295;;;;;;;15939;-0.732422;-0.00125;-0.731018;3;;;;;;;;;;
297;;;;;;;15939.5;-0.737305;-0.00124817;-0.735901;3;;;;;;;;;;
299;;;;;;;15940;-0.7421875;-0.00124664;-0.740814;3;;;;;;;;;;
301;;;;;;;15940.5;-0.74707;-0.00124603;-0.745728;3;;;;;;;;;;
303;;;;;;;15941;-0.751953;-0.00124451;-0.751343;3;;;;;;;;;;
305;;;;;;;15941.5;-0.756836;-0.00124176;-0.756531;3;;;;;;;;;;
307;;;;;;;15942;-0.761719;-0.00124115;-0.761108;3;;;;;;;;;;
309;;;;;;;15942.4;-0.766602;-0.0012384;-0.765991;3;;;;;;;;;;
311;;;;;;;15942.9;-0.771484;-0.0012384;-0.771179;3;;;;;;;;;;
313;;;;;;;15943.4;-0.776367;-0.00123474;-0.775452;3;;;;;;;;;;
315;;;;;;;15943.9;-0.78125;-0.00123535;-0.78064;3;;;;;;;;;;
317;;;;;;;15944.4;-0.786133;-0.00123535;-0.785522;3;;;;;;;;;;
319;;;;;;;15944.9;-0.791016;-0.00123077;-0.79071;3;;;;;;;;;;
321;;;;;;;15945.4;-0.795898;-0.00123047;-0.795288;3;;;;;;;;;;
323;;;;;;;15945.9;-0.800781;-0.00123016;-0.799866;3;;;;;;;;;;
325;;;;;;;15946.3;-0.805664;-0.00123077;-0.805054;3;;;;;;;;;;
327;;;;;;;15946.8;-0.810547;-0.00122925;-0.809631;3;;;;;;;;;;
329;;;;;;;15947.3;-0.81543;-0.00122833;-0.814514;3;;;;;;;;;;
331;;;;;;;15947.8;-0.8203125;-0.00122925;-0.819397;3;;;;;;;;;;
333;;;;;;;15948.3;-0.825195;-0.00122864;-0.824585;3;;;;;;;;;;
335;;;;;;;15948.8;-0.830078;-0.00122955;-0.829468;3;;;;;;;;;;
337;;;;;;;15949.3;-0.834961;-0.00123077;-0.834351;3;;;;;;;;;;
339;;;;;;;15949.8;-0.839844;-0.00122894;-0.839539;3;;;;;;;;;;
341;;;;;;;15950.3;-0.844727;-0.00122864;-0.844116;3;;;;;;;;;;
343;;;;;;;15950.7;-0.849609;-0.00123047;-0.849304;3;;;;;;;;;;
345;;;;;;;15951.2;-0.854492;-0.00123108;-0.854187;3;;;;;;;;;;
347;;;;;;;15951.7;-0.859375;-0.00123566;-0.858765;3;;;;;;;;;;
349;;;;;;;15952.2;-0.864258;-0.00123291;-0.863953;3;;;;;;;;;;
351;;;;;;;15952.7;-0.869141;-0.00123383;-0.86792;3;;;;;;;;;;
353;;;;;;;15953.2;-0.874023;-0.00123718;-0.874023;3;;;;;;;;;;
355;;;;;;;15953.7;-0.878906;-0.00123718;-0.878296;3;;;;;;;;;;
357;;;;;;;15954.2;-0.883789;-0.0012384;-0.882874;3;;;;;;;;;;
359;;;;;;;15954.7;-0.888672;-0.00123962;-0.888367;3;;;;;;;;;;
361;;;;;;;15955.1;-0.893555;-0.00124176;-0.89325;3;;;;;;;;;;
363;;;;;;;15955.6;-0.8984375;-0.00124298;-0.897827;3;;;;;;;;;;
365;;;;;;;15956.1;-0.90332;-0.0012439;-0.902405;3;;;;;;;;;;
367;;;;;;;15956.6;-0.908203;-0.00124481;-0.907288;3;;;;;;;;;;
369;;;;;;;15957.1;-0.913086;-0.00124512;-0.912476;3;;;;;;;;;;
371;;;;;;;15957.6;-0.917969;-0.00124695;-0.917664;3;;;;;;;;;;
373;;;;;;;15958.1;-0.922852;-0.00124908;-0.921936;3;;;;;;;;;;
375;;;;;;;15958.6;-0.927734;-0.00124939;-0.926819;3;;;;;;;;;;
377;;;;;;;15959;-0.932617;-0.00125061;-0.932007;3;;;;;;;;;;
379;;;;;;;15959.5;-0.9375;-0.00125122;-0.937195;3;;;;;;;;;;
381;;;;;;;15960;-0.942383;-0.00125214;-0.942078;3;;;;;;;;;;
383;;;;;;;15960.5;-0.947266;-0.00125183;-0.946655;3;;;;;;;;;;
385;;;;;;;15961;-0.952148;-0.00125275;-0.950928;3;;;;;;;;;;
387;;;;;;;15961.5;-0.957031;-0.00125427;-0.956421;3;;;;;;;;;;
389;;;;;;;15962;-0.961914;-0.00125427;-0.960999;3;;;;;;;;;;
391;;;;;;;15962.5;-0.966797;-0.00125549;-0.966187;3;;;;;;;;;;
393;;;;;;;15963;-0.97168;-0.0012561;-0.971069;3;;;;;;;;;;
395;;;;;;;15963.4;-0.9765625;-0.00125854;-0.976257;3;;;;;;;;;;
397;;;;;;;15963.9;-0.981445;-0.00125824;-0.98114;3;;;;;;;;;;
399;;;;;;;15964.4;-0.986328;-0.00125793;-0.985413;3;;;;;;;;;;
401;;;;;;;15964.9;-0.991211;-0.00125916;-0.990906;3;;;;;;;;;;
403;;;;;;;15965.4;-0.996094;-0.00126312;-0.995178;3;;;;;;;;;;
405;;;;;;;15965.9;-1.00098;-0.00126343;-1.00037;3;;;;;;;;;;
407;;;;;;;15966.4;-0.996094;-0.00125153;-0.995483;3;;;;;;;;;;
409;;;;;;;15966.9;-0.991211;-0.00124451;-0.990906;3;;;;;;;;;;
411;;;;;;;15967.3;-0.986328;-0.00123779;-0.985413;3;;;;;;;;;;
413;;;;;;;15967.8;-0.981445;-0.00123169;-0.981445;3;;;;;;;;;;
415;;;;;;;15968.3;-0.9765625;-0.0012265;-0.975647;3;;;;;;;;;;
417;;;;;;;15968.8;-0.97168;-0.0012207;-0.970459;3;;;;;;;;;;
419;;;;;;;15969.3;-0.966797;-0.00121674;-0.965881;3;;;;;;;;;;
421;;;;;;;15969.8;-0.961914;-0.00121155;-0.961304;3;;;;;;;;;;
423;;;;;;;15970.3;-0.957031;-0.00120941;-0.956116;3;;;;;;;;;;
425;;;;;;;15970.8;-0.952148;-0.00120575;-0.951843;3;;;;;;;;;;
427;;;;;;;15971.3;-0.947266;-0.00120331;-0.946655;3;;;;;;;;;;
429;;;;;;;15971.7;-0.942383;-0.00120026;-0.941772;3;;;;;;;;;;
431;;;;;;;15972.2;-0.9375;-0.00119537;-0.93689;3;;;;;;;;;;
433;;;;;;;15972.7;-0.932617;-0.00119232;-0.932312;3;;;;;;;;;;
435;;;;;;;15973.2;-0.927734;-0.00119049;-0.927429;3;;;;;;;;;;
437;;;;;;;15973.7;-0.922852;-0.00118744;-0.921936;3;;;;;;;;;;
439;;;;;;;15974.2;-0.917969;-0.00118652;-0.917358;3;;;;;;;;;;
441;;;;;;;15974.7;-0.913086;-0.00118408;-0.912781;3;;;;;;;;;;
443;;;;;;;15975.2;-0.908203;-0.00118286;-0.907288;3;;;;;;;;;;
445;;;;;;;15975.6;-0.90332;-0.00118011;-0.90271;3;;;;;;;;;;
447;;;;;;;15976.1;-0.8984375;-0.00117706;-0.897827;3;;;;;;;;;;
449;;;;;;;15976.6;-0.893555;-0.00117676;-0.892639;3;;;;;;;;;;
451;;;;;;;15977.1;-0.888672;-0.00117432;-0.888062;3;;;;;;;;;;
453;;;;;;;15977.6;-0.883789;-0.0011731;-0.883484;3;;;;;;;;;;
455;;;;;;;15978.1;-0.878906;-0.00117157;-0.878601;3;;;;;;;;;;
457;;;;;;;15978.6;-0.874023;-0.001171875;-0.873108;3;;;;;;;;;;
459;;;;;;;15979.1;-0.869141;-0.00116791;-0.86853;3;;;;;;;;;;
461;;;;;;;15979.6;-0.864258;-0.00116913;-0.863647;3;;;;;;;;;;
463;;;;;;;15980;-0.859375;-0.00116821;-0.858765;3;;;;;;;;;;
465;;;;;;;15980.5;-0.854492;-0.00116821;-0.853882;3;;;;;;;;;;
467;;;;;;;15981;-0.849609;-0.00116852;-0.848694;3;;;;;;;;;;
469;;;;;;;15981.5;-0.844727;-0.0011676;-0.843811;3;;;;;;;;;;
471;;;;;;;15982;-0.839844;-0.00116882;-0.838928;3;;;;;;;;;;
473;;;;;;;15982.5;-0.834961;-0.00117065;-0.834351;3;;;;;;;;;;
475;;;;;;;15983;-0.830078;-0.001171875;-0.829163;3;;;;;;;;;;
477;;;;;;;15983.5;-0.825195;-0.00117004;-0.824585;3;;;;;;;;;;
479;;;;;;;15983.9;-0.8203125;-0.00117279;-0.819702;3;;;;;;;;;;
481;;;;;;;15984.4;-0.81543;-0.00117249;-0.814514;3;;;;;;;;;;
483;;;;;;;15984.9;-0.810547;-0.00117554;-0.809937;3;;;;;;;;;;
485;;;;;;;15985.4;-0.805664;-0.00117737;-0.804749;3;;;;;;;;;;
487;;;;;;;15985.9;-0.800781;-0.00117828;-0.800171;3;;;;;;;;;;
489;;;;;;;15986.4;-0.795898;-0.00118103;-0.795288;3;;;;;;;;;;
491;;;;;;;15986.9;-0.791016;-0.00118256;-0.790405;3;;;;;;;;;;
493;;;;;;;15987.4;-0.786133;-0.00118744;-0.785217;3;;;;;;;;;;
495;;;;;;;15987.9;-0.78125;-0.00118774;-0.78064;3;;;;;;;;;;
497;;;;;;;15988.3;-0.776367;-0.0011911;-0.775757;3;;;;;;;;;;
499;;;;;;;15988.8;-0.771484;-0.00119354;-0.770569;3;;;;;;;;;;
501;;;;;;;15989.3;-0.766602;-0.00119537;-0.765381;3;;;;;;;;;;
503;;;;;;;15989.8;-0.761719;-0.00119751;-0.760803;3;;;;;;;;;;
505;;;;;;;15990.3;-0.756836;-0.00120117;-0.75592;3;;;;;;;;;;
507;;;;;;;15990.8;-0.751953;-0.00120514;-0.751343;3;;;;;;;;;;
509;;;;;;;15991.3;-0.74707;-0.00120667;-0.745667;3;;;;;;;;;;
511;;;;;;;15991.8;-0.7421875;-0.00121185;-0.740845;3;;;;;;;;;;
513;;;;;;;15992.2;-0.737305;-0.00121307;-0.735901;3;;;;;;;;;;
515;;;;;;;15992.7;-0.732422;-0.00121796;-0.731079;3;;;;;;;;;;
517;;;;;;;15993.2;-0.727539;-0.0012204;-0.726227;3;;;;;;;;;;
519;;;;;;;15993.7;-0.722656;-0.00122314;-0.721313;3;;;;;;;;;;
521;;;;;;;15994.2;-0.717773;-0.00122589;-0.7164;3;;;;;;;;;;
523;;;;;;;15994.7;-0.712891;-0.00122894;-0.711609;3;;;;;;;;;;
525;;;;;;;15995.2;-0.708008;-0.00123291;-0.706635;3;;;;;;;;;;
527;;;;;;;15995.7;-0.703125;-0.00123505;-0.701721;3;;;;;;;;;;
529;;;;;;;15996.2;-0.698242;-0.00123932;-0.696869;3;;;;;;;;;;
531;;;;;;;15996.6;-0.693359;-0.00124084;-0.691986;3;;;;;;;;;;
533;;;;;;;15997.1;-0.688477;-0.00124268;-0.687164;3;;;;;;;;;;
535;;;;;;;15997.6;-0.683594;-0.00124603;-0.682251;3;;;;;;;;;;
537;;;;;;;15998.1;-0.678711;-0.00124725;-0.677338;3;;;;;;;;;;
539;;;;;;;15998.6;-0.673828;-0.00124817;-0.672485;3;;;;;;;;;;
541;;;;;;;15999.1;-0.668945;-0.00125031;-0.667572;3;;;;;;;;;;
543;;;;;;;15999.6;-0.6640625;-0.00125336;-0.66272;3;;;;;;;;;;
545;;;;;;;16000.1;-0.65918;-0.00125275;-0.657806;3;;;;;;;;;;
547;;;;;;;16000.5;-0.654297;-0.00125397;-0.652985;3;;;;;;;;;;
549;;;;;;;16001;-0.649414;-0.00125702;-0.648041;3;;;;;;;;;;
551;;;;;;;16001.5;-0.644531;-0.00125366;-0.643219;3;;;;;;;;;;
553;;;;;;;16002;-0.639648;-0.00125397;-0.638336;3;;;;;;;;;;
555;;;;;;;16002.5;-0.634766;-0.00125336;-0.633362;3;;;;;;;;;;
557;;;;;;;16003;-0.629883;-0.00125458;-0.628571;3;;;;;;;;;;
559;;;;;;;16003.5;-0.625;-0.00125488;-0.623627;3;;;;;;;;;;
561;;;;;;;16004;-0.620117;-0.00125427;-0.618774;3;;;;;;;;;;
563;;;;;;;16004.5;-0.615234;-0.00125244;-0.613953;3;;;;;;;;;;
565;;;;;;;16004.9;-0.610352;-0.00125214;-0.609009;3;;;;;;;;;;
567;;;;;;;16005.4;-0.605469;-0.00125092;-0.604126;3;;;;;;;;;;
569;;;;;;;16005.9;-0.600586;-0.00124969;-0.599304;3;;;;;;;;;;
571;;;;;;;16006.4;-0.595703;-0.00124847;-0.594421;3;;;;;;;;;;
573;;;;;;;16006.9;-0.59082;-0.00124603;-0.589508;3;;;;;;;;;;
575;;;;;;;16007.4;-0.5859375;-0.00124481;-0.584686;3;;;;;;;;;;
577;;;;;;;16007.9;-0.581055;-0.00124298;-0.579742;3;;;;;;;;;;
579;;;;;;;16008.4;-0.576172;-0.00124268;-0.574921;3;;;;;;;;;;
581;;;;;;;16008.8;-0.571289;-0.00124237;-0.570038;3;;;;;;;;;;
583;;;;;;;16009.3;-0.566406;-0.00123962;-0.565094;3;;;;;;;;;;
585;;;;;;;16009.8;-0.561523;-0.00123749;-0.560272;3;;;;;;;;;;
587;;;;;;;16010.3;-0.556641;-0.00123688;-0.555389;3;;;;;;;;;;
589;;;;;;;16010.8;-0.551758;-0.00123383;-0.550598;3;;;;;;;;;;
591;;;;;;;16011.3;-0.546875;-0.00123291;-0.545685;3;;;;;;;;;;
593;;;;;;;16011.8;-0.541992;-0.00123291;-0.540802;3;;;;;;;;;;
595;;;;;;;16012.3;-0.537109;-0.00123016;-0.53598;3;;;;;;;;;;
597;;;;;;;16012.8;-0.532227;-0.00122803;-0.531036;3;;;;;;;;;;
599;;;;;;;16013.2;-0.527344;-0.0012265;-0.526123;3;;;;;;;;;;
601;;;;;;;16013.7;-0.522461;-0.00122284;-0.521332;3;;;;;;;;;;
603;;;;;;;16014.2;-0.517578;-0.00122162;-0.516449;3;;;;;;;;;;
605;;;;;;;16014.7;-0.512695;-0.00121765;-0.511566;3;;;;;;;;;;
607;;;;;;;16015.2;-0.5078125;-0.0012146;-0.506683;3;;;;;;;;;;
609;;;;;;;16015.7;-0.50293;-0.00121124;-0.501831;3;;;;;;;;;;
611;;;;;;;16016.2;-0.498047;-0.00120758;-0.496948;3;;;;;;;;;;
613;;;;;;;16016.7;-0.493164;-0.00120392;-0.492065;3;;;;;;;;;;
615;;;;;;;16017.2;-0.488281;-0.00119904;-0.487183;3;;;;;;;;;;
617;;;;;;;16017.6;-0.483398;-0.00119507;-0.482269;3;;;;;;;;;;
619;;;;;;;16018.1;-0.478516;-0.00118988;-0.477448;3;;;;;;;;;;
621;;;;;;;16018.6;-0.473633;-0.00118378;-0.472565;3;;;;;;;;;;
623;;;;;;;16019.1;-0.46875;-0.00117859;-0.467682;3;;;;;;;;;;
625;;;;;;;16019.6;-0.463867;-0.00117126;-0.462799;3;;;;;;;;;;
627;;;;;;;16020.1;-0.458984;-0.00116455;-0.457947;3;;;;;;;;;;
629;;;;;;;16020.6;-0.454102;-0.00115692;-0.453033;3;;;;;;;;;;
631;;;;;;;16021.1;-0.449219;-0.00114868;-0.448181;3;;;;;;;;;;
633;;;;;;;16021.5;-0.444336;-0.00113983;-0.443298;3;;;;;;;;;;
635;;;;;;;16022;-0.439453;-0.00112946;-0.438477;3;;;;;;;;;;
637;;;;;;;16022.5;-0.43457;-0.00111938;-0.433594;3;;;;;;;;;;
639;;;;;;;16023;-0.4296875;-0.00110809;-0.428711;3;;;;;;;;;;
641;;;;;;;16023.5;-0.424805;-0.00109558;-0.423828;3;;;;;;;;;;
643;;;;;;;16024;-0.419922;-0.00108246;-0.418945;3;;;;;;;;;;
645;;;;;;;16024.5;-0.415039;-0.0010675;-0.4140625;3;;;;;;;;;;
647;;;;;;;16025;-0.410156;-0.00105133;-0.409241;3;;;;;;;;;;
649;;;;;;;16025.5;-0.405273;-0.00103394;-0.404327;3;;;;;;;;;;
651;;;;;;;16025.9;-0.400391;-0.001015625;-0.399445;3;;;;;;;;;;
653;;;;;;;16026.4;-0.395508;-0.000996094;-0.394562;3;;;;;;;;;;
655;;;;;;;16026.9;-0.390625;-0.000974731;-0.389709;3;;;;;;;;;;
657;;;;;;;16027.4;-0.385742;-0.000953064;-0.384827;3;;;;;;;;;;
659;;;;;;;16027.9;-0.380859;-0.00092926;-0.379944;3;;;;;;;;;;
661;;;;;;;16028.4;-0.375977;-0.000904846;-0.375031;3;;;;;;;;;;
663;;;;;;;16028.9;-0.371094;-0.000878296;-0.370209;3;;;;;;;;;;
665;;;;;;;16029.4;-0.366211;-0.00085083;-0.365387;3;;;;;;;;;;
667;;;;;;;16029.8;-0.361328;-0.000822144;-0.360474;3;;;;;;;;;;
669;;;;;;;16030.3;-0.356445;-0.000792542;-0.355652;3;;;;;;;;;;
671;;;;;;;16030.8;-0.3515625;-0.000762024;-0.35083;3;;;;;;;;;;
673;;;;;;;16031.3;-0.34668;-0.000730591;-0.345856;3;;;;;;;;;;
675;;;;;;;16031.8;-0.341797;-0.000698242;-0.340973;3;;;;;;;;;;
677;;;;;;;16032.3;-0.336914;-0.000665588;-0.336151;3;;;;;;;;;;
679;;;;;;;16032.8;-0.332031;-0.000632324;-0.331268;3;;;;;;;;;;
681;;;;;;;16033.3;-0.327148;-0.00059906;-0.326416;3;;;;;;;;;;
683;;;;;;;16033.8;-0.322266;-0.000565491;-0.321533;3;;;;;;;;;;
685;;;;;;;16034.2;-0.317383;-0.000532227;-0.31665;3;;;;;;;;;;
687;;;;;;;16034.7;-0.3125;-0.000498962;-0.311798;3;;;;;;;;;;
689;;;;;;;16035.2;-0.307617;-0.000466736;-0.306915;3;;;;;;;;;;
691;;;;;;;16035.7;-0.302734;-0.000434753;-0.302063;3;;;;;;;;;;
693;;;;;;;16036.2;-0.297852;-0.000403595;-0.297089;3;;;;;;;;;;
695;;;;;;;16036.7;-0.292969;-0.000373383;-0.292267;3;;;;;;;;;;
697;;;;;;;16037.2;-0.288086;-0.000344269;-0.287384;3;;;;;;;;;;
699;;;;;;;16037.7;-0.283203;-0.000316345;-0.282501;3;;;;;;;;;;
701;;;;;;;16038.1;-0.27832;-0.000289703;-0.277588;3;;;;;;;;;;
703;;;;;;;16038.6;-0.2734375;-0.000264618;-0.272766;3;;;;;;;;;;
705;;;;;;;16039.1;-0.268555;-0.000240723;-0.267883;3;;;;;;;;;;
707;;;;;;;16039.6;-0.263672;-0.000218445;-0.263;3;;;;;;;;;;
709;;;;;;;16040.1;-0.258789;-0.00019754;-0.258148;3;;;;;;;;;;
711;;;;;;;16040.6;-0.253906;-0.000178131;-0.253326;3;;;;;;;;;;
713;;;;;;;16041.1;-0.249023;-0.000160248;-0.248383;3;;;;;;;;;;
715;;;;;;;16041.6;-0.244141;-0.000143768;-0.24353;3;;;;;;;;;;
717;;;;;;;16042.1;-0.239258;-0.000128662;-0.238647;3;;;;;;;;;;
719;;;;;;;16042.5;-0.234375;-0.000114899;-0.233795;3;;;;;;;;;;
721;;;;;;;16043;-0.229492;-0.000102325;-0.228912;3;;;;;;;;;;
723;;;;;;;16043.5;-0.224609;-9.09729e-05;-0.223999;3;;;;;;;;;;
725;;;;;;;16044;-0.219727;-8.0719e-05;-0.219147;3;;;;;;;;;;
727;;;;;;;16044.5;-0.214844;-7.15332e-05;-0.214233;3;;;;;;;;;;
729;;;;;;;16045;-0.209961;-6.32324e-05;-0.209351;3;;;;;;;;;;
731;;;;;;;16045.5;-0.205078;-5.57861e-05;-0.204498;3;;;;;;;;;;
733;;;;;;;16046;-0.200195;-4.91943e-05;-0.199615;3;;;;;;;;;;
735;;;;;;;16046.4;-0.1953125;-4.328e-05;-0.194763;3;;;;;;;;;;
737;;;;;;;16046.9;-0.19043;-3.79974e-05;-0.18988;3;;;;;;;;;;
739;;;;;;;16047.4;-0.185547;-3.32916e-05;-0.185059;3;;;;;;;;;;
741;;;;;;;16047.9;-0.180664;-2.9126e-05;-0.180115;3;;;;;;;;;;
743;;;;;;;16048.4;-0.175781;-2.54272e-05;-0.175323;3;;;;;;;;;;
745;;;;;;;16048.9;-0.170898;-2.21588e-05;-0.17041;3;;;;;;;;;;
747;;;;;;;16049.4;-0.166016;-1.92078e-05;-0.165558;3;;;;;;;;;;
749;;;;;;;16049.9;-0.161133;-1.66779e-05;-0.160614;3;;;;;;;;;;
751;;;;;;;16050.4;-0.15625;-1.43951e-05;-0.155884;3;;;;;;;;;;
753;;;;;;;16050.8;-0.151367;-1.23993e-05;-0.150909;3;;;;;;;;;;
755;;;;;;;16051.3;-0.146484;-1.06384e-05;-0.146088;3;;;;;;;;;;
757;;;;;;;16051.8;-0.141602;-9.09119e-06;-0.141205;3;;;;;;;;;;
759;;;;;;;16052.3;-0.136719;-7.71484e-06;-0.136261;3;;;;;;;;;;
761;;;;;;;16052.8;-0.131836;-6.54297e-06;-0.131378;3;;;;;;;;;;
763;;;;;;;16053.3;-0.126953;-5.46265e-06;-0.126556;3;;;;;;;;;;
765;;;;;;;16053.8;-0.12207;-4.54712e-06;-0.121643;3;;;;;;;;;;
767;;;;;;;16054.3;-0.1171875;-3.76556e-06;-0.116791;3;;;;;;;;;;
769;;;;;;;16054.7;-0.112305;-3.03864e-06;-0.111877;3;;;;;;;;;;
771;;;;;;;16055.2;-0.107422;-2.42981e-06;-0.107056;3;;;;;;;;;;
773;;;;;;;16055.7;-0.102539;-1.8576e-06;-0.102142;3;;;;;;;;;;
775;;;;;;;16056.2;-0.09765625;-1.38885e-06;-0.09729;3;;;;;;;;;;
777;;;;;;;16056.7;-0.0927734;-9.73816e-07;-0.0924683;3;;;;;;;;;;
779;;;;;;;16057.2;-0.0878906;-5.92041e-07;-0.0875549;3;;;;;;;;;;
781;;;;;;;16057.7;-0.0830078;-2.79541e-07;-0.0827332;3;;;;;;;;;;
783;;;;;;;16058.2;-0.078125;2.04468e-08;-0.0778809;3;;;;;;;;;;
785;;;;;;;16058.7;-0.0732422;2.38953e-07;-0.0730896;3;;;;;;;;;;
787;;;;;;;16059.1;-0.0683594;5.0354e-07;-0.0681763;3;;;;;;;;;;
789;;;;;;;16059.6;-0.0634766;7.00378e-07;-0.063324;3;;;;;;;;;;
791;;;;;;;16060.1;-0.05859375;8.79517e-07;-0.0584717;3;;;;;;;;;;
793;;;;;;;16060.6;-0.0537109;1.02509e-06;-0.0536804;3;;;;;;;;;;
795;;;;;;;16061.1;-0.0488281;1.18011e-06;-0.0484985;3;;;;;;;;;;
797;;;;;;;16061.6;-0.0439453;1.33484e-06;-0.0436798;3;;;;;;;;;;
799;;;;;;;16062.1;-0.0390625;1.43799e-06;-0.038736;3;;;;;;;;;;
801;;;;;;;16062.6;-0.0341797;1.54358e-06;-0.0338196;3;;;;;;;;;;
803;;;;;;;16063;-0.0292969;1.64246e-06;-0.0290924;3;;;;;;;;;;
805;;;;;;;16063.5;-0.0244141;1.7392e-06;-0.0241486;3;;;;;;;;;;
807;;;;;;;16064;-0.01953125;1.82373e-06;-0.0192963;3;;;;;;;;;;
809;;;;;;;16064.5;-0.0146484;1.90033e-06;-0.0144104;3;;;;;;;;;;
811;;;;;;;16065;-0.009765625;1.97083e-06;-0.00960388;3;;;;;;;;;;
813;;;;;;;16065.5;-0.00488281;2.04437e-06;-0.00450745;3;;;;;;;;;;
815;;;;;;;16066;0;2.09381e-06;0.000271606;3;;;;;;;;;;
817;;;;;;;16066.5;0.00488281;2.14661e-06;0.00513611;3;;;;;;;;;;
819;;;;;;;16067;0.009765625;2.20215e-06;0.0101288;3;;;;;;;;;;
821;;;;;;;16067.4;0.009765625;1.86401e-06;0.010025;3;;;;;;;;;;
823;;;;;;;16067.9;0.00488281;1.45966e-06;0.00513611;3;;;;;;;;;;
825;;;;;;;16068.4;0;1.15753e-06;0.000234985;3;;;;;;;;;;
827;;;;;;;16068.9;-0.00488281;9.37805e-07;-0.00466919;3;;;;;;;;;;
829;;;;;;;16069.4;-0.009765625;7.51648e-07;-0.00951233;3;;;;;;;;;;
831;;;;;;;;;;;;;;;;;;;;;
833;;;;;;;;;;;;;;;;;;;;;
835;;;;;;;;;;;;;;;;;;;;;
837;;;;;;;;;;;;;;;;;;;;;
839;;;;;;;;;;;;;;;;;;;;;
841;;;;;;;;;;;;;;;;;;;;;
843;;;;;;;;;;;;;;;;;;;;;
845;;;;;;;;;;;;;;;;;;;;;
847;;;;;;;;;;;;;;;;;;;;;
849;;;;;;;;;;;;;;;;;;;;;
851;;;;;;;;;;;;;;;;;;;;;
853;;;;;;;;;;;;;;;;;;;;;
855;;;;;;;;;;;;;;;;;;;;;
857;;;;;;;;;;;;;;;;;;;;;
859;;;;;;;;;;;;;;;;;;;;;
861;;;;;;;;;;;;;;;;;;;;;
863;;;;;;;;;;;;;;;;;;;;;
865;;;;;;;;;;;;;;;;;;;;;
867;;;;;;;;;;;;;;;;;;;;;
869;;;;;;;;;;;;;;;;;;;;;
871;;;;;;;;;;;;;;;;;;;;;
873;;;;;;;;;;;;;;;;;;;;;
875;;;;;;;;;;;;;;;;;;;;;
877;;;;;;;;;;;;;;;;;;;;;
879;;;;;;;;;;;;;;;;;;;;;
881;;;;;;;;;;;;;;;;;;;;;
883;;;;;;;;;;;;;;;;;;;;;
885;;;;;;;;;;;;;;;;;;;;;
887;;;;;;;;;;;;;;;;;;;;;
889;;;;;;;;;;;;;;;;;;;;;
891;;;;;;;;;;;;;;;;;;;;;
893;;;;;;;;;;;;;;;;;;;;;
895;;;;;;;;;;;;;;;;;;;;;
897;;;;;;;;;;;;;;;;;;;;;
899;;;;;;;;;;;;;;;;;;;;;
901;;;;;;;;;;;;;;;;;;;;;
903;;;;;;;;;;;;;;;;;;;;;
905;;;;;;;;;;;;;;;;;;;;;
907;;;;;;;;;;;;;;;;;;;;;
909;;;;;;;;;;;;;;;;;;;;;
911;;;;;;;;;;;;;;;;;;;;;
913;;;;;;;;;;;;;;;;;;;;;
915;;;;;;;;;;;;;;;;;;;;;
917;;;;;;;;;;;;;;;;;;;;;
919;;;;;;;;;;;;;;;;;;;;;
921;;;;;;;;;;;;;;;;;;;;;
923;;;;;;;;;;;;;;;;;;;;;
925;;;;;;;;;;;;;;;;;;;;;
927;;;;;;;;;;;;;;;;;;;;;
929;;;;;;;;;;;;;;;;;;;;;
931;;;;;;;;;;;;;;;;;;;;;
933;;;;;;;;;;;;;;;;;;;;;
935;;;;;;;;;;;;;;;;;;;;;
937;;;;;;;;;;;;;;;;;;;;;
939;;;;;;;;;;;;;;;;;;;;;
941;;;;;;;;;;;;;;;;;;;;;
943;;;;;;;;;;;;;;;;;;;;;
945;;;;;;;;;;;;;;;;;;;;;
947;;;;;;;;;;;;;;;;;;;;;
949;;;;;;;;;;;;;;;;;;;;;
951;;;;;;;;;;;;;;;;;;;;;
953;;;;;;;;;;;;;;;;;;;;;
955;;;;;;;;;;;;;;;;;;;;;
957;;;;;;;;;;;;;;;;;;;;;
959;;;;;;;;;;;;;;;;;;;;;
961;;;;;;;;;;;;;;;;;;;;;
963;;;;;;;;;;;;;;;;;;;;;
965;;;;;;;;;;;;;;;;;;;;;
967;;;;;;;;;;;;;;;;;;;;;
969;;;;;;;;;;;;;;;;;;;;;
971;;;;;;;;;;;;;;;;;;;;;
973;;;;;;;;;;;;;;;;;;;;;
975;;;;;;;;;;;;;;;;;;;;;
977;;;;;;;;;;;;;;;;;;;;;
979;;;;;;;;;;;;;;;;;;;;;
981;;;;;;;;;;;;;;;;;;;;;
983;;;;;;;;;;;;;;;;;;;;;
985;;;;;;;;;;;;;;;;;;;;;
987;;;;;;;;;;;;;;;;;;;;;
989;;;;;;;;;;;;;;;;;;;;;
991;;;;;;;;;;;;;;;;;;;;;
993;;;;;;;;;;;;;;;;;;;;;
995;;;;;;;;;;;;;;;;;;;;;
997;;;;;;;;;;;;;;;;;;;;;
999;;;;;;;;;;;;;;;;;;;;;
1001;;;;;;;;;;;;;;;;;;;;;
1003;;;;;;;;;;;;;;;;;;;;;
1005;;;;;;;;;;;;;;;;;;;;;
1007;;;;;;;;;;;;;;;;;;;;;
1009;;;;;;;;;;;;;;;;;;;;;
1011;;;;;;;;;;;;;;;;;;;;;
1013;;;;;;;;;;;;;;;;;;;;;
1015;;;;;;;;;;;;;;;;;;;;;
1017;;;;;;;;;;;;;;;;;;;;;
1019;;;;;;;;;;;;;;;;;;;;;
1021;;;;;;;;;;;;;;;;;;;;;
1023;;;;;;;;;;;;;;;;;;;;;
1025;;;;;;;;;;;;;;;;;;;;;
1027;;;;;;;;;;;;;;;;;;;;;
1029;;;;;;;;;;;;;;;;;;;;;
1031;;;;;;;;;;;;;;;;;;;;;
1033;;;;;;;;;;;;;;;;;;;;;
1035;;;;;;;;;;;;;;;;;;;;;
1037;;;;;;;;;;;;;;;;;;;;;
1039;;;;;;;;;;;;;;;;;;;;;
1041;;;;;;;;;;;;;;;;;;;;;
1043;;;;;;;;;;;;;;;;;;;;;
1045;;;;;;;;;;;;;;;;;;;;;
1047;;;;;;;;;;;;;;;;;;;;;
1049;;;;;;;;;;;;;;;;;;;;;
1051;;;;;;;;;;;;;;;;;;;;;
1053;;;;;;;;;;;;;;;;;;;;;
1055;;;;;;;;;;;;;;;;;;;;;
1057;;;;;;;;;;;;;;;;;;;;;
1059;;;;;;;;;;;;;;;;;;;;;
1061;;;;;;;;;;;;;;;;;;;;;
1063;;;;;;;;;;;;;;;;;;;;;
1065;;;;;;;;;;;;;;;;;;;;;
1067;;;;;;;;;;;;;;;;;;;;;
1069;;;;;;;;;;;;;;;;;;;;;
1071;;;;;;;;;;;;;;;;;;;;;
1073;;;;;;;;;;;;;;;;;;;;;
1075;;;;;;;;;;;;;;;;;;;;;
1077;;;;;;;;;;;;;;;;;;;;;
1079;;;;;;;;;;;;;;;;;;;;;
1081;;;;;;;;;;;;;;;;;;;;;
1083;;;;;;;;;;;;;;;;;;;;;
1085;;;;;;;;;;;;;;;;;;;;;
1087;;;;;;;;;;;;;;;;;;;;;
1089;;;;;;;;;;;;;;;;;;;;;
1091;;;;;;;;;;;;;;;;;;;;;
1093;;;;;;;;;;;;;;;;;;;;;
1095;;;;;;;;;;;;;;;;;;;;;
1097;;;;;;;;;;;;;;;;;;;;;
1099;;;;;;;;;;;;;;;;;;;;;
1101;;;;;;;;;;;;;;;;;;;;;
1103;;;;;;;;;;;;;;;;;;;;;
1105;;;;;;;;;;;;;;;;;;;;;
1107;;;;;;;;;;;;;;;;;;;;;
1109;;;;;;;;;;;;;;;;;;;;;
1111;;;;;;;;;;;;;;;;;;;;;
1113;;;;;;;;;;;;;;;;;;;;;
1115;;;;;;;;;;;;;;;;;;;;;
1117;;;;;;;;;;;;;;;;;;;;;
1119;;;;;;;;;;;;;;;;;;;;;
1121;;;;;;;;;;;;;;;;;;;;;
1123;;;;;;;;;;;;;;;;;;;;;
1125;;;;;;;;;;;;;;;;;;;;;
1127;;;;;;;;;;;;;;;;;;;;;
1129;;;;;;;;;;;;;;;;;;;;;
1131;;;;;;;;;;;;;;;;;;;;;
1133;;;;;;;;;;;;;;;;;;;;;
1135;;;;;;;;;;;;;;;;;;;;;
1137;;;;;;;;;;;;;;;;;;;;;
1139;;;;;;;;;;;;;;;;;;;;;
1141;;;;;;;;;;;;;;;;;;;;;
1143;;;;;;;;;;;;;;;;;;;;;
1145;;;;;;;;;;;;;;;;;;;;;
1147;;;;;;;;;;;;;;;;;;;;;
1149;;;;;;;;;;;;;;;;;;;;;
1151;;;;;;;;;;;;;;;;;;;;;
1153;;;;;;;;;;;;;;;;;;;;;
1155;;;;;;;;;;;;;;;;;;;;;
1157;;;;;;;;;;;;;;;;;;;;;
1159;;;;;;;;;;;;;;;;;;;;;
1161;;;;;;;;;;;;;;;;;;;;;
1163;;;;;;;;;;;;;;;;;;;;;
1165;;;;;;;;;;;;;;;;;;;;;
1167;;;;;;;;;;;;;;;;;;;;;
1169;;;;;;;;;;;;;;;;;;;;;
1171;;;;;;;;;;;;;;;;;;;;;
1173;;;;;;;;;;;;;;;;;;;;;
1175;;;;;;;;;;;;;;;;;;;;;
1177;;;;;;;;;;;;;;;;;;;;;
1179;;;;;;;;;;;;;;;;;;;;;
1181;;;;;;;;;;;;;;;;;;;;;
1183;;;;;;;;;;;;;;;;;;;;;
1185;;;;;;;;;;;;;;;;;;;;;
1187;;;;;;;;;;;;;;;;;;;;;
1189;;;;;;;;;;;;;;;;;;;;;
1191;;;;;;;;;;;;;;;;;;;;;
1193;;;;;;;;;;;;;;;;;;;;;
1195;;;;;;;;;;;;;;;;;;;;;
1197;;;;;;;;;;;;;;;;;;;;;
1199;;;;;;;;;;;;;;;;;;;;;
1201;;;;;;;;;;;;;;;;;;;;;
1203;;;;;;;;;;;;;;;;;;;;;
1205;;;;;;;;;;;;;;;;;;;;;
1207;;;;;;;;;;;;;;;;;;;;;
1209;;;;;;;;;;;;;;;;;;;;;
1211;;;;;;;;;;;;;;;;;;;;;
1213;;;;;;;;;;;;;;;;;;;;;
1215;;;;;;;;;;;;;;;;;;;;;
1217;;;;;;;;;;;;;;;;;;;;;
1219;;;;;;;;;;;;;;;;;;;;;
1221;;;;;;;;;;;;;;;;;;;;;
1223;;;;;;;;;;;;;;;;;;;;;
1225;;;;;;;;;;;;;;;;;;;;;
1227;;;;;;;;;;;;;;;;;;;;;
1229;;;;;;;;;;;;;;;;;;;;;
1231;;;;;;;;;;;;;;;;;;;;;
1233;;;;;;;;;;;;;;;;;;;;;
1235;;;;;;;;;;;;;;;;;;;;;
1237;;;;;;;;;;;;;;;;;;;;;
1239;;;;;;;;;;;;;;;;;;;;;
1241;;;;;;;;;;;;;;;;;;;;;
1243;;;;;;;;;;;;;;;;;;;;;
1245;;;;;;;;;;;;;;;;;;;;;
1247;;;;;;;;;;;;;;;;;;;;;
1249;;;;;;;;;;;;;;;;;;;;;
1251;;;;;;;;;;;;;;;;;;;;;
1253;;;;;;;;;;;;;;;;;;;;;
1255;;;;;;;;;;;;;;;;;;;;;
1257;;;;;;;;;;;;;;;;;;;;;
1259;;;;;;;;;;;;;;;;;;;;;
1261;;;;;;;;;;;;;;;;;;;;;
1263;;;;;;;;;;;;;;;;;;;;;
1265;;;;;;;;;;;;;;;;;;;;;
1267;;;;;;;;;;;;;;;;;;;;;
1269;;;;;;;;;;;;;;;;;;;;;
1271;;;;;;;;;;;;;;;;;;;;;
1273;;;;;;;;;;;;;;;;;;;;;
1275;;;;;;;;;;;;;;;;;;;;;
1277;;;;;;;;;;;;;;;;;;;;;
1279;;;;;;;;;;;;;;;;;;;;;
1281;;;;;;;;;;;;;;;;;;;;;
1283;;;;;;;;;;;;;;;;;;;;;
1285;;;;;;;;;;;;;;;;;;;;;
1287;;;;;;;;;;;;;;;;;;;;;
1289;;;;;;;;;;;;;;;;;;;;;
1291;;;;;;;;;;;;;;;;;;;;;
1293;;;;;;;;;;;;;;;;;;;;;
1295;;;;;;;;;;;;;;;;;;;;;
1297;;;;;;;;;;;;;;;;;;;;;
1299;;;;;;;;;;;;;;;;;;;;;
1301;;;;;;;;;;;;;;;;;;;;;
1303;;;;;;;;;;;;;;;;;;;;;
1305;;;;;;;;;;;;;;;;;;;;;
1307;;;;;;;;;;;;;;;;;;;;;
1309;;;;;;;;;;;;;;;;;;;;;
1311;;;;;;;;;;;;;;;;;;;;;
1313;;;;;;;;;;;;;;;;;;;;;
1315;;;;;;;;;;;;;;;;;;;;;
1317;;;;;;;;;;;;;;;;;;;;;
1319;;;;;;;;;;;;;;;;;;;;;
1321;;;;;;;;;;;;;;;;;;;;;
1323;;;;;;;;;;;;;;;;;;;;;
1325;;;;;;;;;;;;;;;;;;;;;
1327;;;;;;;;;;;;;;;;;;;;;
1329;;;;;;;;;;;;;;;;;;;;;
1331;;;;;;;;;;;;;;;;;;;;;
1333;;;;;;;;;;;;;;;;;;;;;
1335;;;;;;;;;;;;;;;;;;;;;
1337;;;;;;;;;;;;;;;;;;;;;
1339;;;;;;;;;;;;;;;;;;;;;
1341;;;;;;;;;;;;;;;;;;;;;
1343;;;;;;;;;;;;;;;;;;;;;
1345;;;;;;;;;;;;;;;;;;;;;
1347;;;;;;;;;;;;;;;;;;;;;
1349;;;;;;;;;;;;;;;;;;;;;
1351;;;;;;;;;;;;;;;;;;;;;
1353;;;;;;;;;;;;;;;;;;;;;
1355;;;;;;;;;;;;;;;;;;;;;
1357;;;;;;;;;;;;;;;;;;;;;
1359;;;;;;;;;;;;;;;;;;;;;
1361;;;;;;;;;;;;;;;;;;;;;
1363;;;;;;;;;;;;;;;;;;;;;
1365;;;;;;;;;;;;;;;;;;;;;
1367;;;;;;;;;;;;;;;;;;;;;
1369;;;;;;;;;;;;;;;;;;;;;
1371;;;;;;;;;;;;;;;;;;;;;
1373;;;;;;;;;;;;;;;;;;;;;
1375;;;;;;;;;;;;;;;;;;;;;
1377;;;;;;;;;;;;;;;;;;;;;
1379;;;;;;;;;;;;;;;;;;;;;
1381;;;;;;;;;;;;;;;;;;;;;
1383;;;;;;;;;;;;;;;;;;;;;
1385;;;;;;;;;;;;;;;;;;;;;
1387;;;;;;;;;;;;;;;;;;;;;
1389;;;;;;;;;;;;;;;;;;;;;
1391;;;;;;;;;;;;;;;;;;;;;
1393;;;;;;;;;;;;;;;;;;;;;
1395;;;;;;;;;;;;;;;;;;;;;
1397;;;;;;;;;;;;;;;;;;;;;
1399;;;;;;;;;;;;;;;;;;;;;
1401;;;;;;;;;;;;;;;;;;;;;
1403;;;;;;;;;;;;;;;;;;;;;
1405;;;;;;;;;;;;;;;;;;;;;
1407;;;;;;;;;;;;;;;;;;;;;
1409;;;;;;;;;;;;;;;;;;;;;
1411;;;;;;;;;;;;;;;;;;;;;
1413;;;;;;;;;;;;;;;;;;;;;
1415;;;;;;;;;;;;;;;;;;;;;
1417;;;;;;;;;;;;;;;;;;;;;
1419;;;;;;;;;;;;;;;;;;;;;
1421;;;;;;;;;;;;;;;;;;;;;
1423;;;;;;;;;;;;;;;;;;;;;
1425;;;;;;;;;;;;;;;;;;;;;
1427;;;;;;;;;;;;;;;;;;;;;
1429;;;;;;;;;;;;;;;;;;;;;
1431;;;;;;;;;;;;;;;;;;;;;
1433;;;;;;;;;;;;;;;;;;;;;
1435;;;;;;;;;;;;;;;;;;;;;
1437;;;;;;;;;;;;;;;;;;;;;
1439;;;;;;;;;;;;;;;;;;;;;
1441;;;;;;;;;;;;;;;;;;;;;
1443;;;;;;;;;;;;;;;;;;;;;
1445;;;;;;;;;;;;;;;;;;;;;
1447;;;;;;;;;;;;;;;;;;;;;
1449;;;;;;;;;;;;;;;;;;;;;
1451;;;;;;;;;;;;;;;;;;;;;
1453;;;;;;;;;;;;;;;;;;;;;
1455;;;;;;;;;;;;;;;;;;;;;
1457;;;;;;;;;;;;;;;;;;;;;
1459;;;;;;;;;;;;;;;;;;;;;
1461;;;;;;;;;;;;;;;;;;;;;
1463;;;;;;;;;;;;;;;;;;;;;
1465;;;;;;;;;;;;;;;;;;;;;
1467;;;;;;;;;;;;;;;;;;;;;
1469;;;;;;;;;;;;;;;;;;;;;
1471;;;;;;;;;;;;;;;;;;;;;
1473;;;;;;;;;;;;;;;;;;;;;
1475;;;;;;;;;;;;;;;;;;;;;
1477;;;;;;;;;;;;;;;;;;;;;
1479;;;;;;;;;;;;;;;;;;;;;
1481;;;;;;;;;;;;;;;;;;;;;
1483;;;;;;;;;;;;;;;;;;;;;
1485;;;;;;;;;;;;;;;;;;;;;
1487;;;;;;;;;;;;;;;;;;;;;
1489;;;;;;;;;;;;;;;;;;;;;
1491;;;;;;;;;;;;;;;;;;;;;
1493;;;;;;;;;;;;;;;;;;;;;
1495;;;;;;;;;;;;;;;;;;;;;
1497;;;;;;;;;;;;;;;;;;;;;
1499;;;;;;;;;;;;;;;;;;;;;
1501;;;;;;;;;;;;;;;;;;;;;
1503;;;;;;;;;;;;;;;;;;;;;
1505;;;;;;;;;;;;;;;;;;;;;
1507;;;;;;;;;;;;;;;;;;;;;
1509;;;;;;;;;;;;;;;;;;;;;
1511;;;;;;;;;;;;;;;;;;;;;
1513;;;;;;;;;;;;;;;;;;;;;
1515;;;;;;;;;;;;;;;;;;;;;
1517;;;;;;;;;;;;;;;;;;;;;
1519;;;;;;;;;;;;;;;;;;;;;
1521;;;;;;;;;;;;;;;;;;;;;
1523;;;;;;;;;;;;;;;;;;;;;
1525;;;;;;;;;;;;;;;;;;;;;
1527;;;;;;;;;;;;;;;;;;;;;
1529;;;;;;;;;;;;;;;;;;;;;
1531;;;;;;;;;;;;;;;;;;;;;
1533;;;;;;;;;;;;;;;;;;;;;
1535;;;;;;;;;;;;;;;;;;;;;
1537;;;;;;;;;;;;;;;;;;;;;
1539;;;;;;;;;;;;;;;;;;;;;
1541;;;;;;;;;;;;;;;;;;;;;
1543;;;;;;;;;;;;;;;;;;;;;
1545;;;;;;;;;;;;;;;;;;;;;
1547;;;;;;;;;;;;;;;;;;;;;
1549;;;;;;;;;;;;;;;;;;;;;
1551;;;;;;;;;;;;;;;;;;;;;
1553;;;;;;;;;;;;;;;;;;;;;
1555;;;;;;;;;;;;;;;;;;;;;
1557;;;;;;;;;;;;;;;;;;;;;
1559;;;;;;;;;;;;;;;;;;;;;
1561;;;;;;;;;;;;;;;;;;;;;
1563;;;;;;;;;;;;;;;;;;;;;
1565;;;;;;;;;;;;;;;;;;;;;
1567;;;;;;;;;;;;;;;;;;;;;
1569;;;;;;;;;;;;;;;;;;;;;
1571;;;;;;;;;;;;;;;;;;;;;
1573;;;;;;;;;;;;;;;;;;;;;
1575;;;;;;;;;;;;;;;;;;;;;
1577;;;;;;;;;;;;;;;;;;;;;
1579;;;;;;;;;;;;;;;;;;;;;
1581;;;;;;;;;;;;;;;;;;;;;
1583;;;;;;;;;;;;;;;;;;;;;
1585;;;;;;;;;;;;;;;;;;;;;
1587;;;;;;;;;;;;;;;;;;;;;
1589;;;;;;;;;;;;;;;;;;;;;
1591;;;;;;;;;;;;;;;;;;;;;
1593;;;;;;;;;;;;;;;;;;;;;
1595;;;;;;;;;;;;;;;;;;;;;
1597;;;;;;;;;;;;;;;;;;;;;
1599;;;;;;;;;;;;;;;;;;;;;
1601;;;;;;;;;;;;;;;;;;;;;
1603;;;;;;;;;;;;;;;;;;;;;
1605;;;;;;;;;;;;;;;;;;;;;
1607;;;;;;;;;;;;;;;;;;;;;
1609;;;;;;;;;;;;;;;;;;;;;
1611;;;;;;;;;;;;;;;;;;;;;
1613;;;;;;;;;;;;;;;;;;;;;
1615;;;;;;;;;;;;;;;;;;;;;
1617;;;;;;;;;;;;;;;;;;;;;
1619;;;;;;;;;;;;;;;;;;;;;
1621;;;;;;;;;;;;;;;;;;;;;
1623;;;;;;;;;;;;;;;;;;;;;
1625;;;;;;;;;;;;;;;;;;;;;
1627;;;;;;;;;;;;;;;;;;;;;
1629;;;;;;;;;;;;;;;;;;;;;
1631;;;;;;;;;;;;;;;;;;;;;
1633;;;;;;;;;;;;;;;;;;;;;
1635;;;;;;;;;;;;;;;;;;;;;
1637;;;;;;;;;;;;;;;;;;;;;
1639;;;;;;;;;;;;;;;;;;;;;
1641;;;;;;;;;;;;;;;;;;;;;
1643;;;;;;;;;;;;;;;;;;;;;
1645;;;;;;;;;;;;;;;;;;;;;
1647;;;;;;;;;;;;;;;;;;;;;
1649;;;;;;;;;;;;;;;;;;;;;
1651;;;;;;;;;;;;;;;;;;;;;
1653;;;;;;;;;;;;;;;;;;;;;
1655;;;;;;;;;;;;;;;;;;;;;
1657;;;;;;;;;;;;;;;;;;;;;
1659;;;;;;;;;;;;;;;;;;;;;
1661;;;;;;;;;;;;;;;;;;;;;
1663;;;;;;;;;;;;;;;;;;;;;
1665;;;;;;;;;;;;;;;;;;;;;
1667;;;;;;;;;;;;;;;;;;;;;
1669;;;;;;;;;;;;;;;;;;;;;
1671;;;;;;;;;;;;;;;;;;;;;
1673;;;;;;;;;;;;;;;;;;;;;
1675;;;;;;;;;;;;;;;;;;;;;
1677;;;;;;;;;;;;;;;;;;;;;
1679;;;;;;;;;;;;;;;;;;;;;
1681;;;;;;;;;;;;;;;;;;;;;
1683;;;;;;;;;;;;;;;;;;;;;
1685;;;;;;;;;;;;;;;;;;;;;
1687;;;;;;;;;;;;;;;;;;;;;
1689;;;;;;;;;;;;;;;;;;;;;
1691;;;;;;;;;;;;;;;;;;;;;
1693;;;;;;;;;;;;;;;;;;;;;
1695;;;;;;;;;;;;;;;;;;;;;
1697;;;;;;;;;;;;;;;;;;;;;
1699;;;;;;;;;;;;;;;;;;;;;
1701;;;;;;;;;;;;;;;;;;;;;
1703;;;;;;;;;;;;;;;;;;;;;
1705;;;;;;;;;;;;;;;;;;;;;
1707;;;;;;;;;;;;;;;;;;;;;
1709;;;;;;;;;;;;;;;;;;;;;
1711;;;;;;;;;;;;;;;;;;;;;
1713;;;;;;;;;;;;;;;;;;;;;
1715;;;;;;;;;;;;;;;;;;;;;
1717;;;;;;;;;;;;;;;;;;;;;
1719;;;;;;;;;;;;;;;;;;;;;
1721;;;;;;;;;;;;;;;;;;;;;
1723;;;;;;;;;;;;;;;;;;;;;
1725;;;;;;;;;;;;;;;;;;;;;
1727;;;;;;;;;;;;;;;;;;;;;
1729;;;;;;;;;;;;;;;;;;;;;
1731;;;;;;;;;;;;;;;;;;;;;
1733;;;;;;;;;;;;;;;;;;;;;
1735;;;;;;;;;;;;;;;;;;;;;
1737;;;;;;;;;;;;;;;;;;;;;
1739;;;;;;;;;;;;;;;;;;;;;
1741;;;;;;;;;;;;;;;;;;;;;
1743;;;;;;;;;;;;;;;;;;;;;
1745;;;;;;;;;;;;;;;;;;;;;
1747;;;;;;;;;;;;;;;;;;;;;
1749;;;;;;;;;;;;;;;;;;;;;
1751;;;;;;;;;;;;;;;;;;;;;
1753;;;;;;;;;;;;;;;;;;;;;
1755;;;;;;;;;;;;;;;;;;;;;
1757;;;;;;;;;;;;;;;;;;;;;
1759;;;;;;;;;;;;;;;;;;;;;
1761;;;;;;;;;;;;;;;;;;;;;
1763;;;;;;;;;;;;;;;;;;;;;
1765;;;;;;;;;;;;;;;;;;;;;
1767;;;;;;;;;;;;;;;;;;;;;
1769;;;;;;;;;;;;;;;;;;;;;
1771;;;;;;;;;;;;;;;;;;;;;
1773;;;;;;;;;;;;;;;;;;;;;
1775;;;;;;;;;;;;;;;;;;;;;
1777;;;;;;;;;;;;;;;;;;;;;
1779;;;;;;;;;;;;;;;;;;;;;
1781;;;;;;;;;;;;;;;;;;;;;
1783;;;;;;;;;;;;;;;;;;;;;
1785;;;;;;;;;;;;;;;;;;;;;
1787;;;;;;;;;;;;;;;;;;;;;
1789;;;;;;;;;;;;;;;;;;;;;
1791;;;;;;;;;;;;;;;;;;;;;
1793;;;;;;;;;;;;;;;;;;;;;
1795;;;;;;;;;;;;;;;;;;;;;
1797;;;;;;;;;;;;;;;;;;;;;
1799;;;;;;;;;;;;;;;;;;;;;
1801;;;;;;;;;;;;;;;;;;;;;
1803;;;;;;;;;;;;;;;;;;;;;
1805;;;;;;;;;;;;;;;;;;;;;
1807;;;;;;;;;;;;;;;;;;;;;
1809;;;;;;;;;;;;;;;;;;;;;
1811;;;;;;;;;;;;;;;;;;;;;
1813;;;;;;;;;;;;;;;;;;;;;
1815;;;;;;;;;;;;;;;;;;;;;
1817;;;;;;;;;;;;;;;;;;;;;
1819;;;;;;;;;;;;;;;;;;;;;
1821;;;;;;;;;;;;;;;;;;;;;
1823;;;;;;;;;;;;;;;;;;;;;
1825;;;;;;;;;;;;;;;;;;;;;
1827;;;;;;;;;;;;;;;;;;;;;
1829;;;;;;;;;;;;;;;;;;;;;
1831;;;;;;;;;;;;;;;;;;;;;
1833;;;;;;;;;;;;;;;;;;;;;
1835;;;;;;;;;;;;;;;;;;;;;
1837;;;;;;;;;;;;;;;;;;;;;
1839;;;;;;;;;;;;;;;;;;;;;
1841;;;;;;;;;;;;;;;;;;;;;
1843;;;;;;;;;;;;;;;;;;;;;
1845;;;;;;;;;;;;;;;;;;;;;
1847;;;;;;;;;;;;;;;;;;;;;
1849;;;;;;;;;;;;;;;;;;;;;
1851;;;;;;;;;;;;;;;;;;;;;
1853;;;;;;;;;;;;;;;;;;;;;
1855;;;;;;;;;;;;;;;;;;;;;
1857;;;;;;;;;;;;;;;;;;;;;
1859;;;;;;;;;;;;;;;;;;;;;
1861;;;;;;;;;;;;;;;;;;;;;
1863;;;;;;;;;;;;;;;;;;;;;
1865;;;;;;;;;;;;;;;;;;;;;
1867;;;;;;;;;;;;;;;;;;;;;
1869;;;;;;;;;;;;;;;;;;;;;
1871;;;;;;;;;;;;;;;;;;;;;
1873;;;;;;;;;;;;;;;;;;;;;
1875;;;;;;;;;;;;;;;;;;;;;
1877;;;;;;;;;;;;;;;;;;;;;
1879;;;;;;;;;;;;;;;;;;;;;
1881;;;;;;;;;;;;;;;;;;;;;
1883;;;;;;;;;;;;;;;;;;;;;
1885;;;;;;;;;;;;;;;;;;;;;
1887;;;;;;;;;;;;;;;;;;;;;
1889;;;;;;;;;;;;;;;;;;;;;
1891;;;;;;;;;;;;;;;;;;;;;
1893;;;;;;;;;;;;;;;;;;;;;
1895;;;;;;;;;;;;;;;;;;;;;
1897;;;;;;;;;;;;;;;;;;;;;
1899;;;;;;;;;;;;;;;;;;;;;
1901;;;;;;;;;;;;;;;;;;;;;
1903;;;;;;;;;;;;;;;;;;;;;
1905;;;;;;;;;;;;;;;;;;;;;
1907;;;;;;;;;;;;;;;;;;;;;
1909;;;;;;;;;;;;;;;;;;;;;
1911;;;;;;;;;;;;;;;;;;;;;
1913;;;;;;;;;;;;;;;;;;;;;
1915;;;;;;;;;;;;;;;;;;;;;
1917;;;;;;;;;;;;;;;;;;;;;
1919;;;;;;;;;;;;;;;;;;;;;
1921;;;;;;;;;;;;;;;;;;;;;
1923;;;;;;;;;;;;;;;;;;;;;
1925;;;;;;;;;;;;;;;;;;;;;
1927;;;;;;;;;;;;;;;;;;;;;
1929;;;;;;;;;;;;;;;;;;;;;
1931;;;;;;;;;;;;;;;;;;;;;
1933;;;;;;;;;;;;;;;;;;;;;
1935;;;;;;;;;;;;;;;;;;;;;
1937;;;;;;;;;;;;;;;;;;;;;
1939;;;;;;;;;;;;;;;;;;;;;
1941;;;;;;;;;;;;;;;;;;;;;
1943;;;;;;;;;;;;;;;;;;;;;
1945;;;;;;;;;;;;;;;;;;;;;
1947;;;;;;;;;;;;;;;;;;;;;
1949;;;;;;;;;;;;;;;;;;;;;
1951;;;;;;;;;;;;;;;;;;;;;
1953;;;;;;;;;;;;;;;;;;;;;
1955;;;;;;;;;;;;;;;;;;;;;
1957;;;;;;;;;;;;;;;;;;;;;
1959;;;;;;;;;;;;;;;;;;;;;
1961;;;;;;;;;;;;;;;;;;;;;
1963;;;;;;;;;;;;;;;;;;;;;
1965;;;;;;;;;;;;;;;;;;;;;
1967;;;;;;;;;;;;;;;;;;;;;
1969;;;;;;;;;;;;;;;;;;;;;
1971;;;;;;;;;;;;;;;;;;;;;
1973;;;;;;;;;;;;;;;;;;;;;
1975;;;;;;;;;;;;;;;;;;;;;
1977;;;;;;;;;;;;;;;;;;;;;
1979;;;;;;;;;;;;;;;;;;;;;
1981;;;;;;;;;;;;;;;;;;;;;
1983;;;;;;;;;;;;;;;;;;;;;
1985;;;;;;;;;;;;;;;;;;;;;
1987;;;;;;;;;;;;;;;;;;;;;
1989;;;;;;;;;;;;;;;;;;;;;
1991;;;;;;;;;;;;;;;;;;;;;
1993;;;;;;;;;;;;;;;;;;;;;
1995;;;;;;;;;;;;;;;;;;;;;
1997;;;;;;;;;;;;;;;;;;;;;
1999;;;;;;;;;;;;;;;;;;;;;
2001;;;;;;;;;;;;;;;;;;;;;
2003;;;;;;;;;;;;;;;;;;;;;
2005;;;;;;;;;;;;;;;;;;;;;
2007;;;;;;;;;;;;;;;;;;;;;
2009;;;;;;;;;;;;;;;;;;;;;
2011;;;;;;;;;;;;;;;;;;;;;
2013;;;;;;;;;;;;;;;;;;;;;
2015;;;;;;;;;;;;;;;;;;;;;
2017;;;;;;;;;;;;;;;;;;;;;
2019;;;;;;;;;;;;;;;;;;;;;
2021;;;;;;;;;;;;;;;;;;;;;
2023;;;;;;;;;;;;;;;;;;;;;
2025;;;;;;;;;;;;;;;;;;;;;
2027;;;;;;;;;;;;;;;;;;;;;
2029;;;;;;;;;;;;;;;;;;;;;
2031;;;;;;;;;;;;;;;;;;;;;
2033;;;;;;;;;;;;;;;;;;;;;
2035;;;;;;;;;;;;;;;;;;;;;
2037;;;;;;;;;;;;;;;;;;;;;
2039;;;;;;;;;;;;;;;;;;;;;
2041;;;;;;;;;;;;;;;;;;;;;
2043;;;;;;;;;;;;;;;;;;;;;
2045;;;;;;;;;;;;;;;;;;;;;
2047;;;;;;;;;;;;;;;;;;;;;
2049;;;;;;;;;;;;;;;;;;;;;
2051;;;;;;;;;;;;;;;;;;;;;
2053;;;;;;;;;;;;;;;;;;;;;
2055;;;;;;;;;;;;;;;;;;;;;
2057;;;;;;;;;;;;;;;;;;;;;
2059;;;;;;;;;;;;;;;;;;;;;
2061;;;;;;;;;;;;;;;;;;;;;
2063;;;;;;;;;;;;;;;;;;;;;
2065;;;;;;;;;;;;;;;;;;;;;
2067;;;;;;;;;;;;;;;;;;;;;
2069;;;;;;;;;;;;;;;;;;;;;
2071;;;;;;;;;;;;;;;;;;;;;
2073;;;;;;;;;;;;;;;;;;;;;
2075;;;;;;;;;;;;;;;;;;;;;
2077;;;;;;;;;;;;;;;;;;;;;
2079;;;;;;;;;;;;;;;;;;;;;
2081;;;;;;;;;;;;;;;;;;;;;
2083;;;;;;;;;;;;;;;;;;;;;
2085;;;;;;;;;;;;;;;;;;;;;
2087;;;;;;;;;;;;;;;;;;;;;
2089;;;;;;;;;;;;;;;;;;;;;
2091;;;;;;;;;;;;;;;;;;;;;
2093;;;;;;;;;;;;;;;;;;;;;
2095;;;;;;;;;;;;;;;;;;;;;
2097;;;;;;;;;;;;;;;;;;;;;
2099;;;;;;;;;;;;;;;;;;;;;
2101;;;;;;;;;;;;;;;;;;;;;
2103;;;;;;;;;;;;;;;;;;;;;
2105;;;;;;;;;;;;;;;;;;;;;
2107;;;;;;;;;;;;;;;;;;;;;
2109;;;;;;;;;;;;;;;;;;;;;
2111;;;;;;;;;;;;;;;;;;;;;
2113;;;;;;;;;;;;;;;;;;;;;
2115;;;;;;;;;;;;;;;;;;;;;
2117;;;;;;;;;;;;;;;;;;;;;
2119;;;;;;;;;;;;;;;;;;;;;
2121;;;;;;;;;;;;;;;;;;;;;
2123;;;;;;;;;;;;;;;;;;;;;
2125;;;;;;;;;;;;;;;;;;;;;
2127;;;;;;;;;;;;;;;;;;;;;
2129;;;;;;;;;;;;;;;;;;;;;
2131;;;;;;;;;;;;;;;;;;;;;
2133;;;;;;;;;;;;;;;;;;;;;
2135;;;;;;;;;;;;;;;;;;;;;
2137;;;;;;;;;;;;;;;;;;;;;
2139;;;;;;;;;;;;;;;;;;;;;
2141;;;;;;;;;;;;;;;;;;;;;
2143;;;;;;;;;;;;;;;;;;;;;
2145;;;;;;;;;;;;;;;;;;;;;
2147;;;;;;;;;;;;;;;;;;;;;
2149;;;;;;;;;;;;;;;;;;;;;
2151;;;;;;;;;;;;;;;;;;;;;
2153;;;;;;;;;;;;;;;;;;;;;
2155;;;;;;;;;;;;;;;;;;;;;
2157;;;;;;;;;;;;;;;;;;;;;
2159;;;;;;;;;;;;;;;;;;;;;
2161;;;;;;;;;;;;;;;;;;;;;
2163;;;;;;;;;;;;;;;;;;;;;
2165;;;;;;;;;;;;;;;;;;;;;
2167;;;;;;;;;;;;;;;;;;;;;
2169;;;;;;;;;;;;;;;;;;;;;
2171;;;;;;;;;;;;;;;;;;;;;
2173;;;;;;;;;;;;;;;;;;;;;
2175;;;;;;;;;;;;;;;;;;;;;
2177;;;;;;;;;;;;;;;;;;;;;
2179;;;;;;;;;;;;;;;;;;;;;
2181;;;;;;;;;;;;;;;;;;;;;
2183;;;;;;;;;;;;;;;;;;;;;
2185;;;;;;;;;;;;;;;;;;;;;
2187;;;;;;;;;;;;;;;;;;;;;
2189;;;;;;;;;;;;;;;;;;;;;
2191;;;;;;;;;;;;;;;;;;;;;
2193;;;;;;;;;;;;;;;;;;;;;
2195;;;;;;;;;;;;;;;;;;;;;
2197;;;;;;;;;;;;;;;;;;;;;
2199;;;;;;;;;;;;;;;;;;;;;
2201;;;;;;;;;;;;;;;;;;;;;
2203;;;;;;;;;;;;;;;;;;;;;
2205;;;;;;;;;;;;;;;;;;;;;
2207;;;;;;;;;;;;;;;;;;;;;
2209;;;;;;;;;;;;;;;;;;;;;
2211;;;;;;;;;;;;;;;;;;;;;
2213;;;;;;;;;;;;;;;;;;;;;
2215;;;;;;;;;;;;;;;;;;;;;
2217;;;;;;;;;;;;;;;;;;;;;
2219;;;;;;;;;;;;;;;;;;;;;
2221;;;;;;;;;;;;;;;;;;;;;
2223;;;;;;;;;;;;;;;;;;;;;
2225;;;;;;;;;;;;;;;;;;;;;
2227;;;;;;;;;;;;;;;;;;;;;
2229;;;;;;;;;;;;;;;;;;;;;
2231;;;;;;;;;;;;;;;;;;;;;
2233;;;;;;;;;;;;;;;;;;;;;
2235;;;;;;;;;;;;;;;;;;;;;
2237;;;;;;;;;;;;;;;;;;;;;
2239;;;;;;;;;;;;;;;;;;;;;
2241;;;;;;;;;;;;;;;;;;;;;
2243;;;;;;;;;;;;;;;;;;;;;
2245;;;;;;;;;;;;;;;;;;;;;
2247;;;;;;;;;;;;;;;;;;;;;
2249;;;;;;;;;;;;;;;;;;;;;
2251;;;;;;;;;;;;;;;;;;;;;
2253;;;;;;;;;;;;;;;;;;;;;
2255;;;;;;;;;;;;;;;;;;;;;
2257;;;;;;;;;;;;;;;;;;;;;
2259;;;;;;;;;;;;;;;;;;;;;
2261;;;;;;;;;;;;;;;;;;;;;
2263;;;;;;;;;;;;;;;;;;;;;
2265;;;;;;;;;;;;;;;;;;;;;
2267;;;;;;;;;;;;;;;;;;;;;
2269;;;;;;;;;;;;;;;;;;;;;
2271;;;;;;;;;;;;;;;;;;;;;
2273;;;;;;;;;;;;;;;;;;;;;
2275;;;;;;;;;;;;;;;;;;;;;
2277;;;;;;;;;;;;;;;;;;;;;
2279;;;;;;;;;;;;;;;;;;;;;
2281;;;;;;;;;;;;;;;;;;;;;
2283;;;;;;;;;;;;;;;;;;;;;
2285;;;;;;;;;;;;;;;;;;;;;
2287;;;;;;;;;;;;;;;;;;;;;
2289;;;;;;;;;;;;;;;;;;;;;
2291;;;;;;;;;;;;;;;;;;;;;
2293;;;;;;;;;;;;;;;;;;;;;
2295;;;;;;;;;;;;;;;;;;;;;
2297;;;;;;;;;;;;;;;;;;;;;
2299;;;;;;;;;;;;;;;;;;;;;
2301;;;;;;;;;;;;;;;;;;;;;
2303;;;;;;;;;;;;;;;;;;;;;
2305;;;;;;;;;;;;;;;;;;;;;
2307;;;;;;;;;;;;;;;;;;;;;
2309;;;;;;;;;;;;;;;;;;;;;
2311;;;;;;;;;;;;;;;;;;;;;
2313;;;;;;;;;;;;;;;;;;;;;
2315;;;;;;;;;;;;;;;;;;;;;
2317;;;;;;;;;;;;;;;;;;;;;
2319;;;;;;;;;;;;;;;;;;;;;
2321;;;;;;;;;;;;;;;;;;;;;
2323;;;;;;;;;;;;;;;;;;;;;
2325;;;;;;;;;;;;;;;;;;;;;
2327;;;;;;;;;;;;;;;;;;;;;
2329;;;;;;;;;;;;;;;;;;;;;
2331;;;;;;;;;;;;;;;;;;;;;
2333;;;;;;;;;;;;;;;;;;;;;
2335;;;;;;;;;;;;;;;;;;;;;
2337;;;;;;;;;;;;;;;;;;;;;
2339;;;;;;;;;;;;;;;;;;;;;
2341;;;;;;;;;;;;;;;;;;;;;
2343;;;;;;;;;;;;;;;;;;;;;
2345;;;;;;;;;;;;;;;;;;;;;
2347;;;;;;;;;;;;;;;;;;;;;
2349;;;;;;;;;;;;;;;;;;;;;
2351;;;;;;;;;;;;;;;;;;;;;
2353;;;;;;;;;;;;;;;;;;;;;
2355;;;;;;;;;;;;;;;;;;;;;
2357;;;;;;;;;;;;;;;;;;;;;
2359;;;;;;;;;;;;;;;;;;;;;
2361;;;;;;;;;;;;;;;;;;;;;
2363;;;;;;;;;;;;;;;;;;;;;
2365;;;;;;;;;;;;;;;;;;;;;
2367;;;;;;;;;;;;;;;;;;;;;
2369;;;;;;;;;;;;;;;;;;;;;
2371;;;;;;;;;;;;;;;;;;;;;
2373;;;;;;;;;;;;;;;;;;;;;
2375;;;;;;;;;;;;;;;;;;;;;
2377;;;;;;;;;;;;;;;;;;;;;
2379;;;;;;;;;;;;;;;;;;;;;
2381;;;;;;;;;;;;;;;;;;;;;
2383;;;;;;;;;;;;;;;;;;;;;
2385;;;;;;;;;;;;;;;;;;;;;
2387;;;;;;;;;;;;;;;;;;;;;
2389;;;;;;;;;;;;;;;;;;;;;
2391;;;;;;;;;;;;;;;;;;;;;
2393;;;;;;;;;;;;;;;;;;;;;
2395;;;;;;;;;;;;;;;;;;;;;
2397;;;;;;;;;;;;;;;;;;;;;
2399;;;;;;;;;;;;;;;;;;;;;
2401;;;;;;;;;;;;;;;;;;;;;
2403;;;;;;;;;;;;;;;;;;;;;
2405;;;;;;;;;;;;;;;;;;;;;
2407;;;;;;;;;;;;;;;;;;;;;
2409;;;;;;;;;;;;;;;;;;;;;
2411;;;;;;;;;;;;;;;;;;;;;
2413;;;;;;;;;;;;;;;;;;;;;
2415;;;;;;;;;;;;;;;;;;;;;
2417;;;;;;;;;;;;;;;;;;;;;
2419;;;;;;;;;;;;;;;;;;;;;
2421;;;;;;;;;;;;;;;;;;;;;
2423;;;;;;;;;;;;;;;;;;;;;
2425;;;;;;;;;;;;;;;;;;;;;
2427;;;;;;;;;;;;;;;;;;;;;
2429;;;;;;;;;;;;;;;;;;;;;
2431;;;;;;;;;;;;;;;;;;;;;
2433;;;;;;;;;;;;;;;;;;;;;
2435;;;;;;;;;;;;;;;;;;;;;
2437;;;;;;;;;;;;;;;;;;;;;
2439;;;;;;;;;;;;;;;;;;;;;
2441;;;;;;;;;;;;;;;;;;;;;
2443;;;;;;;;;;;;;;;;;;;;;
2445;;;;;;;;;;;;;;;;;;;;;
2447;;;;;;;;;;;;;;;;;;;;;
2449;;;;;;;;;;;;;;;;;;;;;
2451;;;;;;;;;;;;;;;;;;;;;
2453;;;;;;;;;;;;;;;;;;;;;
2455;;;;;;;;;;;;;;;;;;;;;
2457;;;;;;;;;;;;;;;;;;;;;
2459;;;;;;;;;;;;;;;;;;;;;
2461;;;;;;;;;;;;;;;;;;;;;
2463;;;;;;;;;;;;;;;;;;;;;
2465;;;;;;;;;;;;;;;;;;;;;
2467;;;;;;;;;;;;;;;;;;;;;
2469;;;;;;;;;;;;;;;;;;;;;
2471;;;;;;;;;;;;;;;;;;;;;
2473;;;;;;;;;;;;;;;;;;;;;
2475;;;;;;;;;;;;;;;;;;;;;
2477;;;;;;;;;;;;;;;;;;;;;
2479;;;;;;;;;;;;;;;;;;;;;
2481;;;;;;;;;;;;;;;;;;;;;
2483;;;;;;;;;;;;;;;;;;;;;
2485;;;;;;;;;;;;;;;;;;;;;
2487;;;;;;;;;;;;;;;;;;;;;
2489;;;;;;;;;;;;;;;;;;;;;
2491;;;;;;;;;;;;;;;;;;;;;
2493;;;;;;;;;;;;;;;;;;;;;
2495;;;;;;;;;;;;;;;;;;;;;