File: carbon_superP/O2_1400rpm.txt
Index;Column 2 (V);Column 3 (V);Column 4 (V);Column 5 (V);Column 6 (V/s);Column 7 (V);Time (s);Potential applied (V);WE(1).Current (A);WE(1).Potential (V);Scan;Column 13 (RPM);ω (rad/s)
1;0;0.01;-1;-0.01;0.01;-0.00244;11957.8;-0.0146484;7.35168e-07;-0.0143433;3;1400;146.608
3;;;;;;;11958.3;-0.01953125;6.00891e-07;-0.0192719;3;;
5;;;;;;;11958.8;-0.0244141;4.22668e-07;-0.0241364;3;;
7;;;;;;;11959.3;-0.0292969;2.90222e-07;-0.028949;3;;
9;;;;;;;11959.8;-0.0341797;1.31836e-07;-0.0339417;3;;
11;;;;;;;11960.3;-0.0390625;1.43433e-08;-0.0387268;3;;
13;;;;;;;11960.8;-0.0439453;-1.05286e-07;-0.0436584;3;;
15;;;;;;;11961.3;-0.0488281;-2.41699e-07;-0.0485779;3;;
17;;;;;;;11961.7;-0.0537109;-3.68347e-07;-0.0533447;3;;
19;;;;;;;11962.2;-0.05859375;-5.17578e-07;-0.0582275;3;;
21;;;;;;;11962.7;-0.0634766;-6.61621e-07;-0.0630493;3;;
23;;;;;;;11963.2;-0.0683594;-8.32214e-07;-0.0679932;3;;
25;;;;;;;11963.7;-0.0732422;-1.00494e-06;-0.0727844;3;;
27;;;;;;;11964.2;-0.078125;-1.18317e-06;-0.0776978;3;;
29;;;;;;;11964.7;-0.0830078;-1.39862e-06;-0.0826111;3;;
31;;;;;;;11965.2;-0.0878906;-1.61652e-06;-0.0874023;3;;
33;;;;;;;11965.7;-0.0927734;-1.88782e-06;-0.0922546;3;;
35;;;;;;;11966.1;-0.09765625;-2.18536e-06;-0.0971375;3;;
37;;;;;;;11966.6;-0.102539;-2.50885e-06;-0.101898;3;;
39;;;;;;;11967.1;-0.107422;-2.88818e-06;-0.10672;3;;
41;;;;;;;11967.6;-0.112305;-3.31177e-06;-0.111938;3;;
43;;;;;;;11968.1;-0.1171875;-3.79639e-06;-0.116791;3;;
45;;;;;;;11968.6;-0.12207;-4.3457e-06;-0.121674;3;;
47;;;;;;;11969.1;-0.126953;-4.97131e-06;-0.126526;3;;
49;;;;;;;11969.6;-0.131836;-5.68237e-06;-0.13147;3;;
51;;;;;;;11970;-0.136719;-6.51245e-06;-0.13623;3;;
53;;;;;;;11970.5;-0.141602;-7.41882e-06;-0.141083;3;;
55;;;;;;;11971;-0.146484;-8.43811e-06;-0.146027;3;;
57;;;;;;;11971.5;-0.151367;-9.63745e-06;-0.150879;3;;
59;;;;;;;11972;-0.15625;-1.09802e-05;-0.155701;3;;
61;;;;;;;11972.5;-0.161133;-1.24542e-05;-0.160553;3;;
63;;;;;;;11973;-0.166016;-1.41968e-05;-0.165436;3;;
65;;;;;;;11973.5;-0.170898;-1.61041e-05;-0.170258;3;;
67;;;;;;;11974;-0.175781;-1.82892e-05;-0.17511;3;;
69;;;;;;;11974.4;-0.180664;-2.07214e-05;-0.180084;3;;
71;;;;;;;11974.9;-0.185547;-2.35199e-05;-0.184845;3;;
73;;;;;;;11975.4;-0.19043;-2.67151e-05;-0.189575;3;;
75;;;;;;;11975.9;-0.1953125;-3.0188e-05;-0.194427;3;;
77;;;;;;;11976.4;-0.200195;-3.4256e-05;-0.199615;3;;
79;;;;;;;11976.9;-0.205078;-3.8736e-05;-0.204529;3;;
81;;;;;;;11977.4;-0.209961;-4.38721e-05;-0.209412;3;;
83;;;;;;;11977.9;-0.214844;-4.97437e-05;-0.214264;3;;
85;;;;;;;11978.3;-0.219727;-5.61523e-05;-0.219116;3;;
87;;;;;;;11978.8;-0.224609;-6.37512e-05;-0.223999;3;;
89;;;;;;;11979.3;-0.229492;-7.1991e-05;-0.228943;3;;
91;;;;;;;11979.8;-0.234375;-8.14819e-05;-0.233704;3;;
93;;;;;;;11980.3;-0.239258;-9.23157e-05;-0.238617;3;;
95;;;;;;;11980.8;-0.244141;-0.000104095;-0.243439;3;;
97;;;;;;;11981.3;-0.249023;-0.000117859;-0.248352;3;;
99;;;;;;;11981.8;-0.253906;-0.000132751;-0.253174;3;;
101;;;;;;;11982.3;-0.258789;-0.000149628;-0.258026;3;;
103;;;;;;;11982.7;-0.263672;-0.000168579;-0.262848;3;;
105;;;;;;;11983.2;-0.268555;-0.00018866;-0.26767;3;;
107;;;;;;;11983.7;-0.2734375;-0.000212006;-0.272583;3;;
109;;;;;;;11984.2;-0.27832;-0.000236267;-0.277374;3;;
111;;;;;;;11984.7;-0.283203;-0.000262939;-0.282227;3;;
113;;;;;;;11985.2;-0.288086;-0.000292267;-0.287048;3;;
115;;;;;;;11985.7;-0.292969;-0.000322296;-0.292267;3;;
117;;;;;;;11986.2;-0.297852;-0.000355591;-0.29715;3;;
119;;;;;;;11986.6;-0.302734;-0.000389252;-0.301971;3;;
121;;;;;;;11987.1;-0.307617;-0.000424713;-0.306885;3;;
123;;;;;;;11987.6;-0.3125;-0.000462097;-0.311737;3;;
125;;;;;;;11988.1;-0.317383;-0.000498688;-0.31665;3;;
127;;;;;;;11988.6;-0.322266;-0.00053772;-0.321503;3;;
129;;;;;;;11989.1;-0.327148;-0.000575256;-0.326355;3;;
131;;;;;;;11989.6;-0.332031;-0.000613403;-0.331207;3;;
133;;;;;;;11990.1;-0.336914;-0.000652161;-0.33609;3;;
135;;;;;;;11990.6;-0.341797;-0.000687866;-0.341034;3;;
137;;;;;;;11991;-0.34668;-0.000725403;-0.345917;3;;
139;;;;;;;11991.5;-0.3515625;-0.000759277;-0.350739;3;;
141;;;;;;;11992;-0.356445;-0.000791626;-0.355621;3;;
143;;;;;;;11992.5;-0.361328;-0.000823975;-0.360443;3;;
145;;;;;;;11993;-0.366211;-0.00085144;-0.365356;3;;
147;;;;;;;11993.5;-0.371094;-0.000879211;-0.370209;3;;
149;;;;;;;11994;-0.375977;-0.000902405;-0.375122;3;;
151;;;;;;;11994.5;-0.380859;-0.000923767;-0.380035;3;;
153;;;;;;;11994.9;-0.385742;-0.000944519;-0.384827;3;;
155;;;;;;;11995.4;-0.390625;-0.000960083;-0.389709;3;;
157;;;;;;;11995.9;-0.395508;-0.0009765625;-0.394623;3;;
159;;;;;;;11996.4;-0.400391;-0.000989685;-0.399445;3;;
161;;;;;;;11996.9;-0.405273;-0.00100189;-0.404327;3;;
163;;;;;;;11997.4;-0.410156;-0.0010144;-0.40921;3;;
165;;;;;;;11997.9;-0.415039;-0.00102386;-0.414124;3;;
167;;;;;;;11998.4;-0.419922;-0.00103485;-0.419006;3;;
169;;;;;;;11998.9;-0.424805;-0.0010434;-0.423798;3;;
171;;;;;;;11999.3;-0.4296875;-0.00105194;-0.428772;3;;
173;;;;;;;11999.8;-0.43457;-0.0010611;-0.433563;3;;
175;;;;;;;12000.3;-0.439453;-0.0010672;-0.438446;3;;
177;;;;;;;12000.8;-0.444336;-0.00107635;-0.443329;3;;
179;;;;;;;12001.3;-0.449219;-0.00108276;-0.448151;3;;
181;;;;;;;12001.8;-0.454102;-0.00108887;-0.453094;3;;
183;;;;;;;12002.3;-0.458984;-0.00109711;-0.457947;3;;
185;;;;;;;12002.8;-0.463867;-0.00109985;-0.46283;3;;
187;;;;;;;12003.2;-0.46875;-0.00110718;-0.467712;3;;
189;;;;;;;12003.7;-0.473633;-0.00111237;-0.472565;3;;
191;;;;;;;12004.2;-0.478516;-0.00111633;-0.477448;3;;
193;;;;;;;12004.7;-0.483398;-0.00112213;-0.4823;3;;
195;;;;;;;12005.2;-0.488281;-0.00112518;-0.487152;3;;
197;;;;;;;12005.7;-0.493164;-0.00113007;-0.492065;3;;
199;;;;;;;12006.2;-0.498047;-0.00113434;-0.496979;3;;
201;;;;;;;12006.7;-0.50293;-0.00113678;-0.501862;3;;
203;;;;;;;12007.2;-0.5078125;-0.00114136;-0.506714;3;;
205;;;;;;;12007.6;-0.512695;-0.00114349;-0.511505;3;;
207;;;;;;;12008.1;-0.517578;-0.00114746;-0.516388;3;;
209;;;;;;;12008.6;-0.522461;-0.0011499;-0.521301;3;;
211;;;;;;;12009.1;-0.527344;-0.00115234;-0.526184;3;;
213;;;;;;;12009.6;-0.532227;-0.00115601;-0.531067;3;;
215;;;;;;;12010.1;-0.537109;-0.00115601;-0.53595;3;;
217;;;;;;;12010.6;-0.541992;-0.00115936;-0.540802;3;;
219;;;;;;;12011.1;-0.546875;-0.00116089;-0.545715;3;;
221;;;;;;;12011.5;-0.551758;-0.00116211;-0.550507;3;;
223;;;;;;;12012;-0.556641;-0.00116547;-0.55542;3;;
225;;;;;;;12012.5;-0.561523;-0.00116577;-0.560272;3;;
227;;;;;;;12013;-0.566406;-0.00116943;-0.565186;3;;
229;;;;;;;12013.5;-0.571289;-0.00117004;-0.570007;3;;
231;;;;;;;12014;-0.576172;-0.00117096;-0.574982;3;;
233;;;;;;;12014.5;-0.581055;-0.00117249;-0.579742;3;;
235;;;;;;;12015;-0.5859375;-0.0011734;-0.584686;3;;
237;;;;;;;12015.5;-0.59082;-0.00117615;-0.589569;3;;
239;;;;;;;12015.9;-0.595703;-0.00117523;-0.594391;3;;
241;;;;;;;12016.4;-0.600586;-0.00117615;-0.599243;3;;
243;;;;;;;12016.9;-0.605469;-0.00117859;-0.604126;3;;
245;;;;;;;12017.4;-0.610352;-0.00117706;-0.609039;3;;
247;;;;;;;12017.9;-0.615234;-0.00117981;-0.613892;3;;
249;;;;;;;12018.4;-0.620117;-0.00117828;-0.618774;3;;
251;;;;;;;12018.9;-0.625;-0.00117889;-0.623657;3;;
253;;;;;;;12019.4;-0.629883;-0.00118195;-0.628571;3;;
255;;;;;;;12019.8;-0.634766;-0.00117889;-0.633484;3;;
257;;;;;;;12020.3;-0.639648;-0.00118042;-0.638336;3;;
259;;;;;;;12020.8;-0.644531;-0.00117798;-0.643188;3;;
261;;;;;;;12021.3;-0.649414;-0.00117798;-0.648071;3;;
263;;;;;;;12021.8;-0.654297;-0.00117828;-0.652954;3;;
265;;;;;;;12022.3;-0.65918;-0.00117432;-0.657898;3;;
267;;;;;;;12022.8;-0.6640625;-0.00117615;-0.66275;3;;
269;;;;;;;12023.3;-0.668945;-0.00117493;-0.667603;3;;
271;;;;;;;12023.8;-0.673828;-0.00117371;-0.672485;3;;
273;;;;;;;12024.2;-0.678711;-0.0011734;-0.677399;3;;
275;;;;;;;12024.7;-0.683594;-0.00117218;-0.682251;3;;
277;;;;;;;12025.2;-0.688477;-0.00117279;-0.687103;3;;
279;;;;;;;12025.7;-0.693359;-0.00116913;-0.692047;3;;
281;;;;;;;12026.2;-0.698242;-0.00117035;-0.696899;3;;
283;;;;;;;12026.7;-0.703125;-0.00116791;-0.701813;3;;
285;;;;;;;12027.2;-0.708008;-0.00116455;-0.706665;3;;
287;;;;;;;12027.7;-0.712891;-0.00116577;-0.711578;3;;
289;;;;;;;12028.2;-0.717773;-0.00116486;-0.716431;3;;
291;;;;;;;12028.6;-0.722656;-0.00116211;-0.721252;3;;
293;;;;;;;12029.1;-0.727539;-0.00116119;-0.726196;3;;
295;;;;;;;12029.6;-0.732422;-0.00115967;-0.731049;3;;
297;;;;;;;12030.1;-0.737305;-0.00115936;-0.735962;3;;
299;;;;;;;12030.6;-0.7421875;-0.00115662;-0.740814;3;;
301;;;;;;;12031.1;-0.74707;-0.00115479;-0.745728;3;;
303;;;;;;;12031.6;-0.751953;-0.00115509;-0.751038;3;;
305;;;;;;;12032.1;-0.756836;-0.00115234;-0.756226;3;;
307;;;;;;;12032.5;-0.761719;-0.00115265;-0.760803;3;;
309;;;;;;;12033;-0.766602;-0.00115082;-0.765686;3;;
311;;;;;;;12033.5;-0.771484;-0.00114929;-0.770874;3;;
313;;;;;;;12034;-0.776367;-0.00115021;-0.775452;3;;
315;;;;;;;12034.5;-0.78125;-0.00114655;-0.780334;3;;
317;;;;;;;12035;-0.786133;-0.00114807;-0.785522;3;;
319;;;;;;;12035.5;-0.791016;-0.00114502;-0.790405;3;;
321;;;;;;;12036;-0.795898;-0.00114502;-0.795288;3;;
323;;;;;;;12036.5;-0.800781;-0.00114655;-0.799561;3;;
325;;;;;;;12036.9;-0.805664;-0.0011441;-0.804749;3;;
327;;;;;;;12037.4;-0.810547;-0.00114563;-0.810242;3;;
329;;;;;;;12037.9;-0.81543;-0.00114532;-0.815125;3;;
331;;;;;;;12038.4;-0.8203125;-0.0011441;-0.819397;3;;
333;;;;;;;12038.9;-0.825195;-0.00114655;-0.824585;3;;
335;;;;;;;12039.4;-0.830078;-0.0011441;-0.829468;3;;
337;;;;;;;12039.9;-0.834961;-0.00114655;-0.83374;3;;
339;;;;;;;12040.4;-0.839844;-0.00114532;-0.839539;3;;
341;;;;;;;12040.8;-0.844727;-0.00114594;-0.844116;3;;
343;;;;;;;12041.3;-0.849609;-0.00114929;-0.848999;3;;
345;;;;;;;12041.8;-0.854492;-0.00114746;-0.853882;3;;
347;;;;;;;12042.3;-0.859375;-0.00115082;-0.85907;3;;
349;;;;;;;12042.8;-0.864258;-0.00115265;-0.863342;3;;
351;;;;;;;12043.3;-0.869141;-0.00115143;-0.86853;3;;
353;;;;;;;12043.8;-0.874023;-0.00115479;-0.872803;3;;
355;;;;;;;12044.3;-0.878906;-0.00115417;-0.878296;3;;
357;;;;;;;12044.8;-0.883789;-0.00115875;-0.883484;3;;
359;;;;;;;12045.2;-0.888672;-0.00115875;-0.888672;3;;
361;;;;;;;12045.7;-0.893555;-0.00116089;-0.892944;3;;
363;;;;;;;12046.2;-0.8984375;-0.00116333;-0.897522;3;;
365;;;;;;;12046.7;-0.90332;-0.00116241;-0.90271;3;;
367;;;;;;;12047.2;-0.908203;-0.00116394;-0.907288;3;;
369;;;;;;;12047.7;-0.913086;-0.00116638;-0.912781;3;;
371;;;;;;;12048.2;-0.917969;-0.00116791;-0.917358;3;;
373;;;;;;;12048.7;-0.922852;-0.00117004;-0.922546;3;;
375;;;;;;;12049.1;-0.927734;-0.00116974;-0.927124;3;;
377;;;;;;;12049.6;-0.932617;-0.00117249;-0.932617;3;;
379;;;;;;;12050.1;-0.9375;-0.00117096;-0.936584;3;;
381;;;;;;;12050.6;-0.942383;-0.0011734;-0.941467;3;;
383;;;;;;;12051.1;-0.947266;-0.00117554;-0.946655;3;;
385;;;;;;;12051.6;-0.952148;-0.00117432;-0.951538;3;;
387;;;;;;;12052.1;-0.957031;-0.00117828;-0.956726;3;;
389;;;;;;;12052.6;-0.961914;-0.00117706;-0.961304;3;;
391;;;;;;;12053.1;-0.966797;-0.00117767;-0.967102;3;;
393;;;;;;;12053.5;-0.97168;-0.00118011;-0.970764;3;;
395;;;;;;;12054;-0.9765625;-0.00117889;-0.975647;3;;
397;;;;;;;12054.5;-0.981445;-0.00118347;-0.98053;3;;
399;;;;;;;12055;-0.986328;-0.00118286;-0.985718;3;;
401;;;;;;;12055.5;-0.991211;-0.00118378;-0.990295;3;;
403;;;;;;;12056;-0.996094;-0.00118591;-0.995178;3;;
405;;;;;;;12056.5;-1.00098;-0.0011853;-1.00037;3;;
407;;;;;;;12057;-0.996094;-0.00117554;-0.995483;3;;
409;;;;;;;12057.4;-0.991211;-0.00116699;-0.990601;3;;
411;;;;;;;12057.9;-0.986328;-0.00115784;-0.985413;3;;
413;;;;;;;12058.4;-0.981445;-0.00115326;-0.980225;3;;
415;;;;;;;12058.9;-0.9765625;-0.00114655;-0.976257;3;;
417;;;;;;;12059.4;-0.97168;-0.00114349;-0.971069;3;;
419;;;;;;;12059.9;-0.966797;-0.00113678;-0.965576;3;;
421;;;;;;;12060.4;-0.961914;-0.00113373;-0.961304;3;;
423;;;;;;;12060.9;-0.957031;-0.00113098;-0.956116;3;;
425;;;;;;;12061.4;-0.952148;-0.00112518;-0.951843;3;;
427;;;;;;;12061.8;-0.947266;-0.00112366;-0.946655;3;;
429;;;;;;;12062.3;-0.942383;-0.0011203;-0.942078;3;;
431;;;;;;;12062.8;-0.9375;-0.00111755;-0.936584;3;;
433;;;;;;;12063.3;-0.932617;-0.0011145;-0.932312;3;;
435;;;;;;;12063.8;-0.927734;-0.00111206;-0.927734;3;;
437;;;;;;;12064.3;-0.922852;-0.00110992;-0.922241;3;;
439;;;;;;;12064.8;-0.917969;-0.00110748;-0.917358;3;;
441;;;;;;;12065.3;-0.913086;-0.00110504;-0.912476;3;;
443;;;;;;;12065.7;-0.908203;-0.00110291;-0.907288;3;;
445;;;;;;;12066.2;-0.90332;-0.00110046;-0.90271;3;;
447;;;;;;;12066.7;-0.8984375;-0.00109955;-0.8984375;3;;
449;;;;;;;12067.2;-0.893555;-0.0010968;-0.89325;3;;
451;;;;;;;12067.7;-0.888672;-0.00109467;-0.888367;3;;
453;;;;;;;12068.2;-0.883789;-0.00109436;-0.882874;3;;
455;;;;;;;12068.7;-0.878906;-0.00109131;-0.877991;3;;
457;;;;;;;12069.2;-0.874023;-0.00109283;-0.873108;3;;
459;;;;;;;12069.7;-0.869141;-0.00108917;-0.868225;3;;
461;;;;;;;12070.1;-0.864258;-0.00109009;-0.863647;3;;
463;;;;;;;12070.6;-0.859375;-0.00108765;-0.858154;3;;
465;;;;;;;12071.1;-0.854492;-0.00108704;-0.853882;3;;
467;;;;;;;12071.6;-0.849609;-0.00108856;-0.848999;3;;
469;;;;;;;12072.1;-0.844727;-0.00108551;-0.844421;3;;
471;;;;;;;12072.6;-0.839844;-0.00108765;-0.839233;3;;
473;;;;;;;12073.1;-0.834961;-0.00108856;-0.834351;3;;
475;;;;;;;12073.6;-0.830078;-0.00108551;-0.829468;3;;
477;;;;;;;12074;-0.825195;-0.00108826;-0.824585;3;;
479;;;;;;;12074.5;-0.8203125;-0.00108704;-0.819702;3;;
481;;;;;;;12075;-0.81543;-0.0010907;-0.815125;3;;
483;;;;;;;12075.5;-0.810547;-0.0010907;-0.809937;3;;
485;;;;;;;12076;-0.805664;-0.001091;-0.805054;3;;
487;;;;;;;12076.5;-0.800781;-0.00109436;-0.799561;3;;
489;;;;;;;12077;-0.795898;-0.00109497;-0.794678;3;;
491;;;;;;;12077.5;-0.791016;-0.00109711;-0.7901;3;;
493;;;;;;;12078;-0.786133;-0.00109894;-0.785522;3;;
495;;;;;;;12078.4;-0.78125;-0.00109985;-0.780334;3;;
497;;;;;;;12078.9;-0.776367;-0.00110535;-0.776062;3;;
499;;;;;;;12079.4;-0.771484;-0.00110535;-0.770569;3;;
501;;;;;;;12079.9;-0.766602;-0.00110992;-0.765991;3;;
503;;;;;;;12080.4;-0.761719;-0.00111237;-0.761108;3;;
505;;;;;;;12080.9;-0.756836;-0.00111237;-0.756226;3;;
507;;;;;;;12081.4;-0.751953;-0.00111786;-0.751343;3;;
509;;;;;;;12081.9;-0.74707;-0.00112305;-0.745697;3;;
511;;;;;;;12082.3;-0.7421875;-0.00112701;-0.740845;3;;
513;;;;;;;12082.8;-0.737305;-0.00112946;-0.735992;3;;
515;;;;;;;12083.3;-0.732422;-0.00113159;-0.731079;3;;
517;;;;;;;12083.8;-0.727539;-0.00113617;-0.726166;3;;
519;;;;;;;12084.3;-0.722656;-0.00113647;-0.721344;3;;
521;;;;;;;12084.8;-0.717773;-0.00114166;-0.716431;3;;
523;;;;;;;12085.3;-0.712891;-0.0011441;-0.711609;3;;
525;;;;;;;12085.8;-0.708008;-0.00114655;-0.706635;3;;
527;;;;;;;12086.3;-0.703125;-0.0011496;-0.701752;3;;
529;;;;;;;12086.7;-0.698242;-0.00114868;-0.696869;3;;
531;;;;;;;12087.2;-0.693359;-0.00115509;-0.692047;3;;
533;;;;;;;12087.7;-0.688477;-0.0011557;-0.687134;3;;
535;;;;;;;12088.2;-0.683594;-0.00115997;-0.682281;3;;
537;;;;;;;12088.7;-0.678711;-0.0011615;-0.677368;3;;
539;;;;;;;12089.2;-0.673828;-0.00115967;-0.672485;3;;
541;;;;;;;12089.7;-0.668945;-0.00116333;-0.667603;3;;
543;;;;;;;12090.2;-0.6640625;-0.00116455;-0.66272;3;;
545;;;;;;;12090.7;-0.65918;-0.00116425;-0.657867;3;;
547;;;;;;;12091.1;-0.654297;-0.0011673;-0.652954;3;;
549;;;;;;;12091.6;-0.649414;-0.00116364;-0.648132;3;;
551;;;;;;;12092.1;-0.644531;-0.00116608;-0.643188;3;;
553;;;;;;;12092.6;-0.639648;-0.00116913;-0.638306;3;;
555;;;;;;;12093.1;-0.634766;-0.00116577;-0.633453;3;;
557;;;;;;;12093.6;-0.629883;-0.00116791;-0.62851;3;;
559;;;;;;;12094.1;-0.625;-0.00116547;-0.623718;3;;
561;;;;;;;12094.6;-0.620117;-0.00116486;-0.618774;3;;
563;;;;;;;12095;-0.615234;-0.00116516;-0.613922;3;;
565;;;;;;;12095.5;-0.610352;-0.00116364;-0.608978;3;;
567;;;;;;;12096;-0.605469;-0.00116394;-0.604126;3;;
569;;;;;;;12096.5;-0.600586;-0.00116028;-0.599274;3;;
571;;;;;;;12097;-0.595703;-0.00116089;-0.594452;3;;
573;;;;;;;12097.5;-0.59082;-0.00115906;-0.589508;3;;
575;;;;;;;12098;-0.5859375;-0.0011557;-0.584717;3;;
577;;;;;;;12098.5;-0.581055;-0.00115662;-0.579803;3;;
579;;;;;;;12099;-0.576172;-0.00115356;-0.574982;3;;
581;;;;;;;12099.4;-0.571289;-0.00115326;-0.570099;3;;
583;;;;;;;12099.9;-0.566406;-0.00115112;-0.565216;3;;
585;;;;;;;12100.4;-0.561523;-0.00114746;-0.560333;3;;
587;;;;;;;12100.9;-0.556641;-0.00114868;-0.555389;3;;
589;;;;;;;12101.4;-0.551758;-0.0011438;-0.550598;3;;
591;;;;;;;12101.9;-0.546875;-0.0011441;-0.545715;3;;
593;;;;;;;12102.4;-0.541992;-0.00114044;-0.540771;3;;
595;;;;;;;12102.9;-0.537109;-0.00113922;-0.535919;3;;
597;;;;;;;12103.3;-0.532227;-0.00113831;-0.531006;3;;
599;;;;;;;12103.8;-0.527344;-0.00113312;-0.526154;3;;
601;;;;;;;12104.3;-0.522461;-0.00113251;-0.521332;3;;
603;;;;;;;12104.8;-0.517578;-0.00112885;-0.516418;3;;
605;;;;;;;12105.3;-0.512695;-0.0011264;-0.511566;3;;
607;;;;;;;12105.8;-0.5078125;-0.00112488;-0.506714;3;;
609;;;;;;;12106.3;-0.50293;-0.00112061;-0.501831;3;;
611;;;;;;;12106.8;-0.498047;-0.00111755;-0.496918;3;;
613;;;;;;;12107.3;-0.493164;-0.00111389;-0.492096;3;;
615;;;;;;;12107.7;-0.488281;-0.00110931;-0.487213;3;;
617;;;;;;;12108.2;-0.483398;-0.00110596;-0.4823;3;;
619;;;;;;;12108.7;-0.478516;-0.00110016;-0.477417;3;;
621;;;;;;;12109.2;-0.473633;-0.00109772;-0.472534;3;;
623;;;;;;;12109.7;-0.46875;-0.00109222;-0.467712;3;;
625;;;;;;;12110.2;-0.463867;-0.00108612;-0.46286;3;;
627;;;;;;;12110.7;-0.458984;-0.00108154;-0.457916;3;;
629;;;;;;;12111.2;-0.454102;-0.00107422;-0.453033;3;;
631;;;;;;;12111.6;-0.449219;-0.00106842;-0.448181;3;;
633;;;;;;;12112.1;-0.444336;-0.00106018;-0.443298;3;;
635;;;;;;;12112.6;-0.439453;-0.00105255;-0.438446;3;;
637;;;;;;;12113.1;-0.43457;-0.00104431;-0.433563;3;;
639;;;;;;;12113.6;-0.4296875;-0.00103363;-0.428741;3;;
641;;;;;;;12114.1;-0.424805;-0.00102448;-0.423798;3;;
643;;;;;;;12114.6;-0.419922;-0.00101196;-0.418945;3;;
645;;;;;;;12115.1;-0.415039;-0.000999756;-0.4140625;3;;
647;;;;;;;12115.6;-0.410156;-0.000986938;-0.40921;3;;
649;;;;;;;12116;-0.405273;-0.000970764;-0.404327;3;;
651;;;;;;;12116.5;-0.400391;-0.000955811;-0.399445;3;;
653;;;;;;;12117;-0.395508;-0.000937805;-0.394592;3;;
655;;;;;;;12117.5;-0.390625;-0.000920105;-0.389771;3;;
657;;;;;;;12118;-0.385742;-0.000900574;-0.384888;3;;
659;;;;;;;12118.5;-0.380859;-0.000878601;-0.379944;3;;
661;;;;;;;12119;-0.375977;-0.000857849;-0.375092;3;;
663;;;;;;;12119.5;-0.371094;-0.000833435;-0.370178;3;;
665;;;;;;;12119.9;-0.366211;-0.000808716;-0.365356;3;;
667;;;;;;;12120.4;-0.361328;-0.000783081;-0.360443;3;;
669;;;;;;;12120.9;-0.356445;-0.000755005;-0.355652;3;;
671;;;;;;;12121.4;-0.3515625;-0.000728149;-0.350769;3;;
673;;;;;;;12121.9;-0.34668;-0.000697937;-0.345917;3;;
675;;;;;;;12122.4;-0.341797;-0.000668945;-0.340973;3;;
677;;;;;;;12122.9;-0.336914;-0.000638428;-0.336121;3;;
679;;;;;;;12123.4;-0.332031;-0.000606995;-0.331299;3;;
681;;;;;;;12123.9;-0.327148;-0.000576782;-0.326385;3;;
683;;;;;;;12124.3;-0.322266;-0.000544434;-0.321533;3;;
685;;;;;;;12124.8;-0.317383;-0.000513916;-0.31665;3;;
687;;;;;;;12125.3;-0.3125;-0.000483002;-0.311768;3;;
689;;;;;;;12125.8;-0.307617;-0.000451691;-0.306915;3;;
691;;;;;;;12126.3;-0.302734;-0.000422546;-0.302002;3;;
693;;;;;;;12126.8;-0.297852;-0.000392181;-0.29718;3;;
695;;;;;;;12127.3;-0.292969;-0.000364136;-0.292297;3;;
697;;;;;;;12127.8;-0.288086;-0.000336487;-0.287384;3;;
699;;;;;;;12128.2;-0.283203;-0.000309509;-0.282471;3;;
701;;;;;;;12128.7;-0.27832;-0.000284943;-0.277679;3;;
703;;;;;;;12129.2;-0.2734375;-0.000260193;-0.272827;3;;
705;;;;;;;12129.7;-0.268555;-0.000237854;-0.267914;3;;
707;;;;;;;12130.2;-0.263672;-0.000216278;-0.263062;3;;
709;;;;;;;12130.7;-0.258789;-0.000195953;-0.258179;3;;
711;;;;;;;12131.2;-0.253906;-0.000177734;-0.253265;3;;
713;;;;;;;12131.7;-0.249023;-0.000159973;-0.248413;3;;
715;;;;;;;12132.2;-0.244141;-0.000144318;-0.24353;3;;
717;;;;;;;12132.6;-0.239258;-0.000129547;-0.238647;3;;
719;;;;;;;12133.1;-0.234375;-0.000115967;-0.233826;3;;
721;;;;;;;12133.6;-0.229492;-0.000104004;-0.228943;3;;
723;;;;;;;12134.1;-0.224609;-9.25598e-05;-0.22403;3;;
725;;;;;;;12134.6;-0.219727;-8.26721e-05;-0.219147;3;;
727;;;;;;;12135.1;-0.214844;-7.35168e-05;-0.214233;3;;
729;;;;;;;12135.6;-0.209961;-6.52161e-05;-0.209381;3;;
731;;;;;;;12136.1;-0.205078;-5.8075e-05;-0.204498;3;;
733;;;;;;;12136.5;-0.200195;-5.1239e-05;-0.199646;3;;
735;;;;;;;12137;-0.1953125;-4.54865e-05;-0.194733;3;;
737;;;;;;;12137.5;-0.19043;-4.01337e-05;-0.18988;3;;
739;;;;;;;12138;-0.185547;-3.53241e-05;-0.185059;3;;
741;;;;;;;12138.5;-0.180664;-3.11646e-05;-0.180145;3;;
743;;;;;;;12139;-0.175781;-2.7301e-05;-0.175262;3;;
745;;;;;;;12139.5;-0.170898;-2.39868e-05;-0.17038;3;;
747;;;;;;;12140;-0.166016;-2.09595e-05;-0.165558;3;;
749;;;;;;;12140.5;-0.161133;-1.82648e-05;-0.160675;3;;
751;;;;;;;12140.9;-0.15625;-1.59332e-05;-0.155792;3;;
753;;;;;;;12141.4;-0.151367;-1.37878e-05;-0.150909;3;;
755;;;;;;;12141.9;-0.146484;-1.1972e-05;-0.146027;3;;
757;;;;;;;12142.4;-0.141602;-1.02844e-05;-0.141174;3;;
759;;;;;;;12142.9;-0.136719;-8.82263e-06;-0.136322;3;;
761;;;;;;;12143.4;-0.131836;-7.53479e-06;-0.131439;3;;
763;;;;;;;12143.9;-0.126953;-6.38733e-06;-0.126556;3;;
765;;;;;;;12144.4;-0.12207;-5.34363e-06;-0.121613;3;;
767;;;;;;;12144.8;-0.1171875;-4.46777e-06;-0.116821;3;;
769;;;;;;;12145.3;-0.112305;-3.67249e-06;-0.111938;3;;
771;;;;;;;12145.8;-0.107422;-2.97485e-06;-0.107025;3;;
773;;;;;;;12146.3;-0.102539;-2.35565e-06;-0.102203;3;;
775;;;;;;;12146.8;-0.09765625;-1.81244e-06;-0.0973206;3;;
777;;;;;;;12147.3;-0.0927734;-1.32019e-06;-0.0924377;3;;
779;;;;;;;12147.8;-0.0878906;-8.9447e-07;-0.0874939;3;;
781;;;;;;;12148.3;-0.0830078;-5.03235e-07;-0.0827026;3;;
783;;;;;;;12148.8;-0.078125;-1.94092e-07;-0.0778198;3;;
785;;;;;;;12149.2;-0.0732422;1.5564e-07;-0.072998;3;;
787;;;;;;;12149.7;-0.0683594;4.33044e-07;-0.0682068;3;;
789;;;;;;;12150.2;-0.0634766;6.75049e-07;-0.0633545;3;;
791;;;;;;;12150.7;-0.05859375;9.17053e-07;-0.0584717;3;;
793;;;;;;;12151.2;-0.0537109;1.08368e-06;-0.0535583;3;;
795;;;;;;;12151.7;-0.0488281;1.30066e-06;-0.0485199;3;;
797;;;;;;;12152.2;-0.0439453;1.45905e-06;-0.0436096;3;;
799;;;;;;;12152.7;-0.0390625;1.60553e-06;-0.0387909;3;;
801;;;;;;;12153.2;-0.0341797;1.77307e-06;-0.0339935;3;;
803;;;;;;;12153.6;-0.0292969;1.86127e-06;-0.0289673;3;;
805;;;;;;;12154.1;-0.0244141;2.01385e-06;-0.0241089;3;;
807;;;;;;;12154.6;-0.01953125;2.10297e-06;-0.0193115;3;;
809;;;;;;;12155.1;-0.0146484;2.18079e-06;-0.0144012;3;;
811;;;;;;;12155.6;-0.009765625;2.27905e-06;-0.00948486;3;;
813;;;;;;;12156.1;-0.00488281;2.34558e-06;-0.00460815;3;;
815;;;;;;;12156.6;0;2.40387e-06;0.000238037;3;;
817;;;;;;;12157.1;0.00488281;2.46063e-06;0.00511475;3;;
819;;;;;;;12157.5;0.009765625;2.52045e-06;0.010022;3;;
821;;;;;;;12158;0.009765625;2.15637e-06;0.0100159;3;;
823;;;;;;;12158.5;0.00488281;1.70654e-06;0.00513611;3;;
825;;;;;;;12159;0;1.42151e-06;0.000189209;3;;
827;;;;;;;12159.5;-0.00488281;1.15326e-06;-0.00455933;3;;
829;;;;;;;12160;-0.009765625;9.39331e-07;-0.00953979;3;;
831;;;;;;;;;;;;;
833;;;;;;;;;;;;;
835;;;;;;;;;;;;;
837;;;;;;;;;;;;;
839;;;;;;;;;;;;;
841;;;;;;;;;;;;;
843;;;;;;;;;;;;;
845;;;;;;;;;;;;;
847;;;;;;;;;;;;;
849;;;;;;;;;;;;;
851;;;;;;;;;;;;;
853;;;;;;;;;;;;;
855;;;;;;;;;;;;;
857;;;;;;;;;;;;;
859;;;;;;;;;;;;;
861;;;;;;;;;;;;;
863;;;;;;;;;;;;;
865;;;;;;;;;;;;;
867;;;;;;;;;;;;;
869;;;;;;;;;;;;;
871;;;;;;;;;;;;;
873;;;;;;;;;;;;;
875;;;;;;;;;;;;;
877;;;;;;;;;;;;;
879;;;;;;;;;;;;;
881;;;;;;;;;;;;;
883;;;;;;;;;;;;;
885;;;;;;;;;;;;;
887;;;;;;;;;;;;;
889;;;;;;;;;;;;;
891;;;;;;;;;;;;;
893;;;;;;;;;;;;;
895;;;;;;;;;;;;;
897;;;;;;;;;;;;;
899;;;;;;;;;;;;;
901;;;;;;;;;;;;;
903;;;;;;;;;;;;;
905;;;;;;;;;;;;;
907;;;;;;;;;;;;;
909;;;;;;;;;;;;;
911;;;;;;;;;;;;;
913;;;;;;;;;;;;;
915;;;;;;;;;;;;;
917;;;;;;;;;;;;;
919;;;;;;;;;;;;;
921;;;;;;;;;;;;;
923;;;;;;;;;;;;;
925;;;;;;;;;;;;;
927;;;;;;;;;;;;;
929;;;;;;;;;;;;;
931;;;;;;;;;;;;;
933;;;;;;;;;;;;;
935;;;;;;;;;;;;;
937;;;;;;;;;;;;;
939;;;;;;;;;;;;;
941;;;;;;;;;;;;;
943;;;;;;;;;;;;;
945;;;;;;;;;;;;;
947;;;;;;;;;;;;;
949;;;;;;;;;;;;;
951;;;;;;;;;;;;;
953;;;;;;;;;;;;;
955;;;;;;;;;;;;;
957;;;;;;;;;;;;;
959;;;;;;;;;;;;;
961;;;;;;;;;;;;;
963;;;;;;;;;;;;;
965;;;;;;;;;;;;;
967;;;;;;;;;;;;;
969;;;;;;;;;;;;;
971;;;;;;;;;;;;;
973;;;;;;;;;;;;;
975;;;;;;;;;;;;;
977;;;;;;;;;;;;;
979;;;;;;;;;;;;;
981;;;;;;;;;;;;;
983;;;;;;;;;;;;;
985;;;;;;;;;;;;;
987;;;;;;;;;;;;;
989;;;;;;;;;;;;;
991;;;;;;;;;;;;;
993;;;;;;;;;;;;;
995;;;;;;;;;;;;;
997;;;;;;;;;;;;;
999;;;;;;;;;;;;;
1001;;;;;;;;;;;;;
1003;;;;;;;;;;;;;
1005;;;;;;;;;;;;;
1007;;;;;;;;;;;;;
1009;;;;;;;;;;;;;
1011;;;;;;;;;;;;;
1013;;;;;;;;;;;;;
1015;;;;;;;;;;;;;
1017;;;;;;;;;;;;;
1019;;;;;;;;;;;;;
1021;;;;;;;;;;;;;
1023;;;;;;;;;;;;;
1025;;;;;;;;;;;;;
1027;;;;;;;;;;;;;
1029;;;;;;;;;;;;;
1031;;;;;;;;;;;;;
1033;;;;;;;;;;;;;
1035;;;;;;;;;;;;;
1037;;;;;;;;;;;;;
1039;;;;;;;;;;;;;
1041;;;;;;;;;;;;;
1043;;;;;;;;;;;;;
1045;;;;;;;;;;;;;
1047;;;;;;;;;;;;;
1049;;;;;;;;;;;;;
1051;;;;;;;;;;;;;
1053;;;;;;;;;;;;;
1055;;;;;;;;;;;;;
1057;;;;;;;;;;;;;
1059;;;;;;;;;;;;;
1061;;;;;;;;;;;;;
1063;;;;;;;;;;;;;
1065;;;;;;;;;;;;;
1067;;;;;;;;;;;;;
1069;;;;;;;;;;;;;
1071;;;;;;;;;;;;;
1073;;;;;;;;;;;;;
1075;;;;;;;;;;;;;
1077;;;;;;;;;;;;;
1079;;;;;;;;;;;;;
1081;;;;;;;;;;;;;
1083;;;;;;;;;;;;;
1085;;;;;;;;;;;;;
1087;;;;;;;;;;;;;
1089;;;;;;;;;;;;;
1091;;;;;;;;;;;;;
1093;;;;;;;;;;;;;
1095;;;;;;;;;;;;;
1097;;;;;;;;;;;;;
1099;;;;;;;;;;;;;
1101;;;;;;;;;;;;;
1103;;;;;;;;;;;;;
1105;;;;;;;;;;;;;
1107;;;;;;;;;;;;;
1109;;;;;;;;;;;;;
1111;;;;;;;;;;;;;
1113;;;;;;;;;;;;;
1115;;;;;;;;;;;;;
1117;;;;;;;;;;;;;
1119;;;;;;;;;;;;;
1121;;;;;;;;;;;;;
1123;;;;;;;;;;;;;
1125;;;;;;;;;;;;;
1127;;;;;;;;;;;;;
1129;;;;;;;;;;;;;
1131;;;;;;;;;;;;;
1133;;;;;;;;;;;;;
1135;;;;;;;;;;;;;
1137;;;;;;;;;;;;;
1139;;;;;;;;;;;;;
1141;;;;;;;;;;;;;
1143;;;;;;;;;;;;;
1145;;;;;;;;;;;;;
1147;;;;;;;;;;;;;
1149;;;;;;;;;;;;;
1151;;;;;;;;;;;;;
1153;;;;;;;;;;;;;
1155;;;;;;;;;;;;;
1157;;;;;;;;;;;;;
1159;;;;;;;;;;;;;
1161;;;;;;;;;;;;;
1163;;;;;;;;;;;;;
1165;;;;;;;;;;;;;
1167;;;;;;;;;;;;;
1169;;;;;;;;;;;;;
1171;;;;;;;;;;;;;
1173;;;;;;;;;;;;;
1175;;;;;;;;;;;;;
1177;;;;;;;;;;;;;
1179;;;;;;;;;;;;;
1181;;;;;;;;;;;;;
1183;;;;;;;;;;;;;
1185;;;;;;;;;;;;;
1187;;;;;;;;;;;;;
1189;;;;;;;;;;;;;
1191;;;;;;;;;;;;;
1193;;;;;;;;;;;;;
1195;;;;;;;;;;;;;
1197;;;;;;;;;;;;;
1199;;;;;;;;;;;;;
1201;;;;;;;;;;;;;
1203;;;;;;;;;;;;;
1205;;;;;;;;;;;;;
1207;;;;;;;;;;;;;
1209;;;;;;;;;;;;;
1211;;;;;;;;;;;;;
1213;;;;;;;;;;;;;
1215;;;;;;;;;;;;;
1217;;;;;;;;;;;;;
1219;;;;;;;;;;;;;
1221;;;;;;;;;;;;;
1223;;;;;;;;;;;;;
1225;;;;;;;;;;;;;
1227;;;;;;;;;;;;;
1229;;;;;;;;;;;;;
1231;;;;;;;;;;;;;
1233;;;;;;;;;;;;;
1235;;;;;;;;;;;;;
1237;;;;;;;;;;;;;
1239;;;;;;;;;;;;;
1241;;;;;;;;;;;;;
1243;;;;;;;;;;;;;
1245;;;;;;;;;;;;;
1247;;;;;;;;;;;;;
1249;;;;;;;;;;;;;
1251;;;;;;;;;;;;;
1253;;;;;;;;;;;;;
1255;;;;;;;;;;;;;
1257;;;;;;;;;;;;;
1259;;;;;;;;;;;;;
1261;;;;;;;;;;;;;
1263;;;;;;;;;;;;;
1265;;;;;;;;;;;;;
1267;;;;;;;;;;;;;
1269;;;;;;;;;;;;;
1271;;;;;;;;;;;;;
1273;;;;;;;;;;;;;
1275;;;;;;;;;;;;;
1277;;;;;;;;;;;;;
1279;;;;;;;;;;;;;
1281;;;;;;;;;;;;;
1283;;;;;;;;;;;;;
1285;;;;;;;;;;;;;
1287;;;;;;;;;;;;;
1289;;;;;;;;;;;;;
1291;;;;;;;;;;;;;
1293;;;;;;;;;;;;;
1295;;;;;;;;;;;;;
1297;;;;;;;;;;;;;
1299;;;;;;;;;;;;;
1301;;;;;;;;;;;;;
1303;;;;;;;;;;;;;
1305;;;;;;;;;;;;;
1307;;;;;;;;;;;;;
1309;;;;;;;;;;;;;
1311;;;;;;;;;;;;;
1313;;;;;;;;;;;;;
1315;;;;;;;;;;;;;
1317;;;;;;;;;;;;;
1319;;;;;;;;;;;;;
1321;;;;;;;;;;;;;
1323;;;;;;;;;;;;;
1325;;;;;;;;;;;;;
1327;;;;;;;;;;;;;
1329;;;;;;;;;;;;;
1331;;;;;;;;;;;;;
1333;;;;;;;;;;;;;
1335;;;;;;;;;;;;;
1337;;;;;;;;;;;;;
1339;;;;;;;;;;;;;
1341;;;;;;;;;;;;;
1343;;;;;;;;;;;;;
1345;;;;;;;;;;;;;
1347;;;;;;;;;;;;;
1349;;;;;;;;;;;;;
1351;;;;;;;;;;;;;
1353;;;;;;;;;;;;;
1355;;;;;;;;;;;;;
1357;;;;;;;;;;;;;
1359;;;;;;;;;;;;;
1361;;;;;;;;;;;;;
1363;;;;;;;;;;;;;
1365;;;;;;;;;;;;;
1367;;;;;;;;;;;;;
1369;;;;;;;;;;;;;
1371;;;;;;;;;;;;;
1373;;;;;;;;;;;;;
1375;;;;;;;;;;;;;
1377;;;;;;;;;;;;;
1379;;;;;;;;;;;;;
1381;;;;;;;;;;;;;
1383;;;;;;;;;;;;;
1385;;;;;;;;;;;;;
1387;;;;;;;;;;;;;
1389;;;;;;;;;;;;;
1391;;;;;;;;;;;;;
1393;;;;;;;;;;;;;
1395;;;;;;;;;;;;;
1397;;;;;;;;;;;;;
1399;;;;;;;;;;;;;
1401;;;;;;;;;;;;;
1403;;;;;;;;;;;;;
1405;;;;;;;;;;;;;
1407;;;;;;;;;;;;;
1409;;;;;;;;;;;;;
1411;;;;;;;;;;;;;
1413;;;;;;;;;;;;;
1415;;;;;;;;;;;;;
1417;;;;;;;;;;;;;
1419;;;;;;;;;;;;;
1421;;;;;;;;;;;;;
1423;;;;;;;;;;;;;
1425;;;;;;;;;;;;;
1427;;;;;;;;;;;;;
1429;;;;;;;;;;;;;
1431;;;;;;;;;;;;;
1433;;;;;;;;;;;;;
1435;;;;;;;;;;;;;
1437;;;;;;;;;;;;;
1439;;;;;;;;;;;;;
1441;;;;;;;;;;;;;
1443;;;;;;;;;;;;;
1445;;;;;;;;;;;;;
1447;;;;;;;;;;;;;
1449;;;;;;;;;;;;;
1451;;;;;;;;;;;;;
1453;;;;;;;;;;;;;
1455;;;;;;;;;;;;;
1457;;;;;;;;;;;;;
1459;;;;;;;;;;;;;
1461;;;;;;;;;;;;;
1463;;;;;;;;;;;;;
1465;;;;;;;;;;;;;
1467;;;;;;;;;;;;;
1469;;;;;;;;;;;;;
1471;;;;;;;;;;;;;
1473;;;;;;;;;;;;;
1475;;;;;;;;;;;;;
1477;;;;;;;;;;;;;
1479;;;;;;;;;;;;;
1481;;;;;;;;;;;;;
1483;;;;;;;;;;;;;
1485;;;;;;;;;;;;;
1487;;;;;;;;;;;;;
1489;;;;;;;;;;;;;
1491;;;;;;;;;;;;;
1493;;;;;;;;;;;;;
1495;;;;;;;;;;;;;
1497;;;;;;;;;;;;;
1499;;;;;;;;;;;;;
1501;;;;;;;;;;;;;
1503;;;;;;;;;;;;;
1505;;;;;;;;;;;;;
1507;;;;;;;;;;;;;
1509;;;;;;;;;;;;;
1511;;;;;;;;;;;;;
1513;;;;;;;;;;;;;
1515;;;;;;;;;;;;;
1517;;;;;;;;;;;;;
1519;;;;;;;;;;;;;
1521;;;;;;;;;;;;;
1523;;;;;;;;;;;;;
1525;;;;;;;;;;;;;
1527;;;;;;;;;;;;;
1529;;;;;;;;;;;;;
1531;;;;;;;;;;;;;
1533;;;;;;;;;;;;;
1535;;;;;;;;;;;;;
1537;;;;;;;;;;;;;
1539;;;;;;;;;;;;;
1541;;;;;;;;;;;;;
1543;;;;;;;;;;;;;
1545;;;;;;;;;;;;;
1547;;;;;;;;;;;;;
1549;;;;;;;;;;;;;
1551;;;;;;;;;;;;;
1553;;;;;;;;;;;;;
1555;;;;;;;;;;;;;
1557;;;;;;;;;;;;;
1559;;;;;;;;;;;;;
1561;;;;;;;;;;;;;
1563;;;;;;;;;;;;;
1565;;;;;;;;;;;;;
1567;;;;;;;;;;;;;
1569;;;;;;;;;;;;;
1571;;;;;;;;;;;;;
1573;;;;;;;;;;;;;
1575;;;;;;;;;;;;;
1577;;;;;;;;;;;;;
1579;;;;;;;;;;;;;
1581;;;;;;;;;;;;;
1583;;;;;;;;;;;;;
1585;;;;;;;;;;;;;
1587;;;;;;;;;;;;;
1589;;;;;;;;;;;;;
1591;;;;;;;;;;;;;
1593;;;;;;;;;;;;;
1595;;;;;;;;;;;;;
1597;;;;;;;;;;;;;
1599;;;;;;;;;;;;;
1601;;;;;;;;;;;;;
1603;;;;;;;;;;;;;
1605;;;;;;;;;;;;;
1607;;;;;;;;;;;;;
1609;;;;;;;;;;;;;
1611;;;;;;;;;;;;;
1613;;;;;;;;;;;;;
1615;;;;;;;;;;;;;
1617;;;;;;;;;;;;;
1619;;;;;;;;;;;;;
1621;;;;;;;;;;;;;
1623;;;;;;;;;;;;;
1625;;;;;;;;;;;;;
1627;;;;;;;;;;;;;
1629;;;;;;;;;;;;;
1631;;;;;;;;;;;;;
1633;;;;;;;;;;;;;
1635;;;;;;;;;;;;;
1637;;;;;;;;;;;;;
1639;;;;;;;;;;;;;
1641;;;;;;;;;;;;;
1643;;;;;;;;;;;;;
1645;;;;;;;;;;;;;
1647;;;;;;;;;;;;;
1649;;;;;;;;;;;;;
1651;;;;;;;;;;;;;
1653;;;;;;;;;;;;;
1655;;;;;;;;;;;;;
1657;;;;;;;;;;;;;
1659;;;;;;;;;;;;;
1661;;;;;;;;;;;;;
1663;;;;;;;;;;;;;
1665;;;;;;;;;;;;;
1667;;;;;;;;;;;;;
1669;;;;;;;;;;;;;
1671;;;;;;;;;;;;;
1673;;;;;;;;;;;;;
1675;;;;;;;;;;;;;
1677;;;;;;;;;;;;;
1679;;;;;;;;;;;;;
1681;;;;;;;;;;;;;
1683;;;;;;;;;;;;;
1685;;;;;;;;;;;;;
1687;;;;;;;;;;;;;
1689;;;;;;;;;;;;;
1691;;;;;;;;;;;;;
1693;;;;;;;;;;;;;
1695;;;;;;;;;;;;;
1697;;;;;;;;;;;;;
1699;;;;;;;;;;;;;
1701;;;;;;;;;;;;;
1703;;;;;;;;;;;;;
1705;;;;;;;;;;;;;
1707;;;;;;;;;;;;;
1709;;;;;;;;;;;;;
1711;;;;;;;;;;;;;
1713;;;;;;;;;;;;;
1715;;;;;;;;;;;;;
1717;;;;;;;;;;;;;
1719;;;;;;;;;;;;;
1721;;;;;;;;;;;;;
1723;;;;;;;;;;;;;
1725;;;;;;;;;;;;;
1727;;;;;;;;;;;;;
1729;;;;;;;;;;;;;
1731;;;;;;;;;;;;;
1733;;;;;;;;;;;;;
1735;;;;;;;;;;;;;
1737;;;;;;;;;;;;;
1739;;;;;;;;;;;;;
1741;;;;;;;;;;;;;
1743;;;;;;;;;;;;;
1745;;;;;;;;;;;;;
1747;;;;;;;;;;;;;
1749;;;;;;;;;;;;;
1751;;;;;;;;;;;;;
1753;;;;;;;;;;;;;
1755;;;;;;;;;;;;;
1757;;;;;;;;;;;;;
1759;;;;;;;;;;;;;
1761;;;;;;;;;;;;;
1763;;;;;;;;;;;;;
1765;;;;;;;;;;;;;
1767;;;;;;;;;;;;;
1769;;;;;;;;;;;;;
1771;;;;;;;;;;;;;
1773;;;;;;;;;;;;;
1775;;;;;;;;;;;;;
1777;;;;;;;;;;;;;
1779;;;;;;;;;;;;;
1781;;;;;;;;;;;;;
1783;;;;;;;;;;;;;
1785;;;;;;;;;;;;;
1787;;;;;;;;;;;;;
1789;;;;;;;;;;;;;
1791;;;;;;;;;;;;;
1793;;;;;;;;;;;;;
1795;;;;;;;;;;;;;
1797;;;;;;;;;;;;;
1799;;;;;;;;;;;;;
1801;;;;;;;;;;;;;
1803;;;;;;;;;;;;;
1805;;;;;;;;;;;;;
1807;;;;;;;;;;;;;
1809;;;;;;;;;;;;;
1811;;;;;;;;;;;;;
1813;;;;;;;;;;;;;
1815;;;;;;;;;;;;;
1817;;;;;;;;;;;;;
1819;;;;;;;;;;;;;
1821;;;;;;;;;;;;;
1823;;;;;;;;;;;;;
1825;;;;;;;;;;;;;
1827;;;;;;;;;;;;;
1829;;;;;;;;;;;;;
1831;;;;;;;;;;;;;
1833;;;;;;;;;;;;;
1835;;;;;;;;;;;;;
1837;;;;;;;;;;;;;
1839;;;;;;;;;;;;;
1841;;;;;;;;;;;;;
1843;;;;;;;;;;;;;
1845;;;;;;;;;;;;;
1847;;;;;;;;;;;;;
1849;;;;;;;;;;;;;
1851;;;;;;;;;;;;;
1853;;;;;;;;;;;;;
1855;;;;;;;;;;;;;
1857;;;;;;;;;;;;;
1859;;;;;;;;;;;;;
1861;;;;;;;;;;;;;
1863;;;;;;;;;;;;;
1865;;;;;;;;;;;;;
1867;;;;;;;;;;;;;
1869;;;;;;;;;;;;;
1871;;;;;;;;;;;;;
1873;;;;;;;;;;;;;
1875;;;;;;;;;;;;;
1877;;;;;;;;;;;;;
1879;;;;;;;;;;;;;
1881;;;;;;;;;;;;;
1883;;;;;;;;;;;;;
1885;;;;;;;;;;;;;
1887;;;;;;;;;;;;;
1889;;;;;;;;;;;;;
1891;;;;;;;;;;;;;
1893;;;;;;;;;;;;;
1895;;;;;;;;;;;;;
1897;;;;;;;;;;;;;
1899;;;;;;;;;;;;;
1901;;;;;;;;;;;;;
1903;;;;;;;;;;;;;
1905;;;;;;;;;;;;;
1907;;;;;;;;;;;;;
1909;;;;;;;;;;;;;
1911;;;;;;;;;;;;;
1913;;;;;;;;;;;;;
1915;;;;;;;;;;;;;
1917;;;;;;;;;;;;;
1919;;;;;;;;;;;;;
1921;;;;;;;;;;;;;
1923;;;;;;;;;;;;;
1925;;;;;;;;;;;;;
1927;;;;;;;;;;;;;
1929;;;;;;;;;;;;;
1931;;;;;;;;;;;;;
1933;;;;;;;;;;;;;
1935;;;;;;;;;;;;;
1937;;;;;;;;;;;;;
1939;;;;;;;;;;;;;
1941;;;;;;;;;;;;;
1943;;;;;;;;;;;;;
1945;;;;;;;;;;;;;
1947;;;;;;;;;;;;;
1949;;;;;;;;;;;;;
1951;;;;;;;;;;;;;
1953;;;;;;;;;;;;;
1955;;;;;;;;;;;;;
1957;;;;;;;;;;;;;
1959;;;;;;;;;;;;;
1961;;;;;;;;;;;;;
1963;;;;;;;;;;;;;
1965;;;;;;;;;;;;;
1967;;;;;;;;;;;;;
1969;;;;;;;;;;;;;
1971;;;;;;;;;;;;;
1973;;;;;;;;;;;;;
1975;;;;;;;;;;;;;
1977;;;;;;;;;;;;;
1979;;;;;;;;;;;;;
1981;;;;;;;;;;;;;
1983;;;;;;;;;;;;;
1985;;;;;;;;;;;;;
1987;;;;;;;;;;;;;
1989;;;;;;;;;;;;;
1991;;;;;;;;;;;;;
1993;;;;;;;;;;;;;
1995;;;;;;;;;;;;;
1997;;;;;;;;;;;;;
1999;;;;;;;;;;;;;
2001;;;;;;;;;;;;;
2003;;;;;;;;;;;;;
2005;;;;;;;;;;;;;
2007;;;;;;;;;;;;;
2009;;;;;;;;;;;;;
2011;;;;;;;;;;;;;
2013;;;;;;;;;;;;;
2015;;;;;;;;;;;;;
2017;;;;;;;;;;;;;
2019;;;;;;;;;;;;;
2021;;;;;;;;;;;;;
2023;;;;;;;;;;;;;
2025;;;;;;;;;;;;;
2027;;;;;;;;;;;;;
2029;;;;;;;;;;;;;
2031;;;;;;;;;;;;;
2033;;;;;;;;;;;;;
2035;;;;;;;;;;;;;
2037;;;;;;;;;;;;;
2039;;;;;;;;;;;;;
2041;;;;;;;;;;;;;
2043;;;;;;;;;;;;;
2045;;;;;;;;;;;;;
2047;;;;;;;;;;;;;
2049;;;;;;;;;;;;;
2051;;;;;;;;;;;;;
2053;;;;;;;;;;;;;
2055;;;;;;;;;;;;;
2057;;;;;;;;;;;;;
2059;;;;;;;;;;;;;
2061;;;;;;;;;;;;;
2063;;;;;;;;;;;;;
2065;;;;;;;;;;;;;
2067;;;;;;;;;;;;;
2069;;;;;;;;;;;;;
2071;;;;;;;;;;;;;
2073;;;;;;;;;;;;;
2075;;;;;;;;;;;;;
2077;;;;;;;;;;;;;
2079;;;;;;;;;;;;;
2081;;;;;;;;;;;;;
2083;;;;;;;;;;;;;
2085;;;;;;;;;;;;;
2087;;;;;;;;;;;;;
2089;;;;;;;;;;;;;
2091;;;;;;;;;;;;;
2093;;;;;;;;;;;;;
2095;;;;;;;;;;;;;
2097;;;;;;;;;;;;;
2099;;;;;;;;;;;;;
2101;;;;;;;;;;;;;
2103;;;;;;;;;;;;;
2105;;;;;;;;;;;;;
2107;;;;;;;;;;;;;
2109;;;;;;;;;;;;;
2111;;;;;;;;;;;;;
2113;;;;;;;;;;;;;
2115;;;;;;;;;;;;;
2117;;;;;;;;;;;;;
2119;;;;;;;;;;;;;
2121;;;;;;;;;;;;;
2123;;;;;;;;;;;;;
2125;;;;;;;;;;;;;
2127;;;;;;;;;;;;;
2129;;;;;;;;;;;;;
2131;;;;;;;;;;;;;
2133;;;;;;;;;;;;;
2135;;;;;;;;;;;;;
2137;;;;;;;;;;;;;
2139;;;;;;;;;;;;;
2141;;;;;;;;;;;;;
2143;;;;;;;;;;;;;
2145;;;;;;;;;;;;;
2147;;;;;;;;;;;;;
2149;;;;;;;;;;;;;
2151;;;;;;;;;;;;;
2153;;;;;;;;;;;;;
2155;;;;;;;;;;;;;
2157;;;;;;;;;;;;;
2159;;;;;;;;;;;;;
2161;;;;;;;;;;;;;
2163;;;;;;;;;;;;;
2165;;;;;;;;;;;;;
2167;;;;;;;;;;;;;
2169;;;;;;;;;;;;;
2171;;;;;;;;;;;;;
2173;;;;;;;;;;;;;
2175;;;;;;;;;;;;;
2177;;;;;;;;;;;;;
2179;;;;;;;;;;;;;
2181;;;;;;;;;;;;;
2183;;;;;;;;;;;;;
2185;;;;;;;;;;;;;
2187;;;;;;;;;;;;;
2189;;;;;;;;;;;;;
2191;;;;;;;;;;;;;
2193;;;;;;;;;;;;;
2195;;;;;;;;;;;;;
2197;;;;;;;;;;;;;
2199;;;;;;;;;;;;;
2201;;;;;;;;;;;;;
2203;;;;;;;;;;;;;
2205;;;;;;;;;;;;;
2207;;;;;;;;;;;;;
2209;;;;;;;;;;;;;
2211;;;;;;;;;;;;;
2213;;;;;;;;;;;;;
2215;;;;;;;;;;;;;
2217;;;;;;;;;;;;;
2219;;;;;;;;;;;;;
2221;;;;;;;;;;;;;
2223;;;;;;;;;;;;;
2225;;;;;;;;;;;;;
2227;;;;;;;;;;;;;
2229;;;;;;;;;;;;;
2231;;;;;;;;;;;;;
2233;;;;;;;;;;;;;
2235;;;;;;;;;;;;;
2237;;;;;;;;;;;;;
2239;;;;;;;;;;;;;
2241;;;;;;;;;;;;;
2243;;;;;;;;;;;;;
2245;;;;;;;;;;;;;
2247;;;;;;;;;;;;;
2249;;;;;;;;;;;;;
2251;;;;;;;;;;;;;
2253;;;;;;;;;;;;;
2255;;;;;;;;;;;;;
2257;;;;;;;;;;;;;
2259;;;;;;;;;;;;;
2261;;;;;;;;;;;;;
2263;;;;;;;;;;;;;
2265;;;;;;;;;;;;;
2267;;;;;;;;;;;;;
2269;;;;;;;;;;;;;
2271;;;;;;;;;;;;;
2273;;;;;;;;;;;;;
2275;;;;;;;;;;;;;
2277;;;;;;;;;;;;;
2279;;;;;;;;;;;;;
2281;;;;;;;;;;;;;
2283;;;;;;;;;;;;;
2285;;;;;;;;;;;;;
2287;;;;;;;;;;;;;
2289;;;;;;;;;;;;;
2291;;;;;;;;;;;;;
2293;;;;;;;;;;;;;
2295;;;;;;;;;;;;;
2297;;;;;;;;;;;;;
2299;;;;;;;;;;;;;
2301;;;;;;;;;;;;;
2303;;;;;;;;;;;;;
2305;;;;;;;;;;;;;
2307;;;;;;;;;;;;;
2309;;;;;;;;;;;;;
2311;;;;;;;;;;;;;
2313;;;;;;;;;;;;;
2315;;;;;;;;;;;;;
2317;;;;;;;;;;;;;
2319;;;;;;;;;;;;;
2321;;;;;;;;;;;;;
2323;;;;;;;;;;;;;
2325;;;;;;;;;;;;;
2327;;;;;;;;;;;;;
2329;;;;;;;;;;;;;
2331;;;;;;;;;;;;;
2333;;;;;;;;;;;;;
2335;;;;;;;;;;;;;
2337;;;;;;;;;;;;;
2339;;;;;;;;;;;;;
2341;;;;;;;;;;;;;
2343;;;;;;;;;;;;;
2345;;;;;;;;;;;;;
2347;;;;;;;;;;;;;
2349;;;;;;;;;;;;;
2351;;;;;;;;;;;;;
2353;;;;;;;;;;;;;
2355;;;;;;;;;;;;;
2357;;;;;;;;;;;;;
2359;;;;;;;;;;;;;
2361;;;;;;;;;;;;;
2363;;;;;;;;;;;;;
2365;;;;;;;;;;;;;
2367;;;;;;;;;;;;;
2369;;;;;;;;;;;;;
2371;;;;;;;;;;;;;
2373;;;;;;;;;;;;;
2375;;;;;;;;;;;;;
2377;;;;;;;;;;;;;
2379;;;;;;;;;;;;;
2381;;;;;;;;;;;;;
2383;;;;;;;;;;;;;
2385;;;;;;;;;;;;;
2387;;;;;;;;;;;;;
2389;;;;;;;;;;;;;
2391;;;;;;;;;;;;;
2393;;;;;;;;;;;;;
2395;;;;;;;;;;;;;
2397;;;;;;;;;;;;;
2399;;;;;;;;;;;;;
2401;;;;;;;;;;;;;
2403;;;;;;;;;;;;;
2405;;;;;;;;;;;;;
2407;;;;;;;;;;;;;
2409;;;;;;;;;;;;;
2411;;;;;;;;;;;;;
2413;;;;;;;;;;;;;
2415;;;;;;;;;;;;;
2417;;;;;;;;;;;;;
2419;;;;;;;;;;;;;
2421;;;;;;;;;;;;;
2423;;;;;;;;;;;;;
2425;;;;;;;;;;;;;
2427;;;;;;;;;;;;;
2429;;;;;;;;;;;;;
2431;;;;;;;;;;;;;
2433;;;;;;;;;;;;;
2435;;;;;;;;;;;;;
2437;;;;;;;;;;;;;
2439;;;;;;;;;;;;;
2441;;;;;;;;;;;;;
2443;;;;;;;;;;;;;
2445;;;;;;;;;;;;;
2447;;;;;;;;;;;;;
2449;;;;;;;;;;;;;
2451;;;;;;;;;;;;;
2453;;;;;;;;;;;;;
2455;;;;;;;;;;;;;
2457;;;;;;;;;;;;;
2459;;;;;;;;;;;;;
2461;;;;;;;;;;;;;
2463;;;;;;;;;;;;;
2465;;;;;;;;;;;;;
2467;;;;;;;;;;;;;
2469;;;;;;;;;;;;;
2471;;;;;;;;;;;;;
2473;;;;;;;;;;;;;
2475;;;;;;;;;;;;;
2477;;;;;;;;;;;;;
2479;;;;;;;;;;;;;
2481;;;;;;;;;;;;;
2483;;;;;;;;;;;;;
2485;;;;;;;;;;;;;
2487;;;;;;;;;;;;;
2489;;;;;;;;;;;;;
2491;;;;;;;;;;;;;
2493;;;;;;;;;;;;;
2495;;;;;;;;;;;;;