File: carbon_superP/O2_1800rpm.txt
Index;Column 2 (V);Column 3 (V);Column 4 (V);Column 5 (V);Column 6 (V/s);Column 7 (V);Time (s);Potential applied (V);WE(1).Current (A);WE(1).Potential (V);Scan;Column 13 (RPM);ω (rad/s)
1;0.1;0.11;-0.9;-0.01;0.01;-0.00244;16214.9;-0.014801;-9.96399e-07;-0.0144958;3;1800;188.496
3;;;;;;;16215.4;-0.0196838;-1.85913e-06;-0.0193481;3;;
5;;;;;;;16215.9;-0.0245667;-3.21686e-06;-0.024231;3;;
7;;;;;;;16216.3;-0.0294495;-5.37109e-06;-0.0291016;3;;
9;;;;;;;16216.8;-0.0343323;-8.68835e-06;-0.0339966;3;;
11;;;;;;;16217.3;-0.0392151;-1.36688e-05;-0.0388336;3;;
13;;;;;;;16217.8;-0.0440979;-2.0993e-05;-0.0437012;3;;
15;;;;;;;16218.3;-0.0489807;-3.12592e-05;-0.0485504;3;;
17;;;;;;;16218.8;-0.0538635;-4.50256e-05;-0.0534973;3;;
19;;;;;;;16219.3;-0.0587463;-6.27747e-05;-0.0583801;3;;
21;;;;;;;16219.8;-0.0636292;-8.45947e-05;-0.0632324;3;;
23;;;;;;;16220.2;-0.068512;-0.000110352;-0.0681152;3;;
25;;;;;;;16220.7;-0.0733948;-0.000139954;-0.0729675;3;;
27;;;;;;;16221.2;-0.0782776;-0.000172791;-0.0777283;3;;
29;;;;;;;16221.7;-0.0831604;-0.000208313;-0.0825806;3;;
31;;;;;;;16222.2;-0.0880432;-0.000246399;-0.0874634;3;;
33;;;;;;;16222.7;-0.092926;-0.000286102;-0.0922241;3;;
35;;;;;;;16223.2;-0.0978088;-0.000327179;-0.0974426;3;;
37;;;;;;;16223.7;-0.102692;-0.000369293;-0.102264;3;;
39;;;;;;;16224.2;-0.107574;-0.000411316;-0.107178;3;;
41;;;;;;;16224.6;-0.112457;-0.000453186;-0.112;3;;
43;;;;;;;16225.1;-0.11734;-0.000494324;-0.116882;3;;
45;;;;;;;16225.6;-0.122223;-0.000533752;-0.121765;3;;
47;;;;;;;16226.1;-0.127106;-0.000571289;-0.126587;3;;
49;;;;;;;16226.6;-0.131989;-0.000606689;-0.131531;3;;
51;;;;;;;16227.1;-0.136871;-0.000638123;-0.136383;3;;
53;;;;;;;16227.6;-0.141754;-0.000666199;-0.141205;3;;
55;;;;;;;16228.1;-0.146637;-0.000690918;-0.146179;3;;
57;;;;;;;16228.5;-0.15152;-0.000711365;-0.151001;3;;
59;;;;;;;16229;-0.156403;-0.000728455;-0.155884;3;;
61;;;;;;;16229.5;-0.161285;-0.000743713;-0.160706;3;;
63;;;;;;;16230;-0.166168;-0.000758362;-0.165619;3;;
65;;;;;;;16230.5;-0.171051;-0.000770569;-0.170471;3;;
67;;;;;;;16231;-0.175934;-0.000782776;-0.175354;3;;
69;;;;;;;16231.5;-0.180817;-0.000793762;-0.180237;3;;
71;;;;;;;16232;-0.185699;-0.000803223;-0.185089;3;;
73;;;;;;;16232.5;-0.190582;-0.000813293;-0.190002;3;;
75;;;;;;;16232.9;-0.195465;-0.000821838;-0.194824;3;;
77;;;;;;;16233.4;-0.200348;-0.000828247;-0.199677;3;;
79;;;;;;;16233.9;-0.205231;-0.000836182;-0.20459;3;;
81;;;;;;;16234.4;-0.210114;-0.000842896;-0.209503;3;;
83;;;;;;;16234.9;-0.214996;-0.000847778;-0.214294;3;;
85;;;;;;;16235.4;-0.219879;-0.000854187;-0.219116;3;;
87;;;;;;;16235.9;-0.224762;-0.000859985;-0.224091;3;;
89;;;;;;;16236.4;-0.229645;-0.000864563;-0.228973;3;;
91;;;;;;;16236.8;-0.234528;-0.000869141;-0.233887;3;;
93;;;;;;;16237.3;-0.23941;-0.000871887;-0.238739;3;;
95;;;;;;;16237.8;-0.244293;-0.000875244;-0.243591;3;;
97;;;;;;;16238.3;-0.249176;-0.000880127;-0.248444;3;;
99;;;;;;;16238.8;-0.254059;-0.000881958;-0.253357;3;;
101;;;;;;;16239.3;-0.258942;-0.000884399;-0.258209;3;;
103;;;;;;;16239.8;-0.263824;-0.000887451;-0.263031;3;;
105;;;;;;;16240.3;-0.268707;-0.000889587;-0.267944;3;;
107;;;;;;;16240.8;-0.27359;-0.000891418;-0.272797;3;;
109;;;;;;;16241.2;-0.278473;-0.00089325;-0.277649;3;;
111;;;;;;;16241.7;-0.283356;-0.000894775;-0.282562;3;;
113;;;;;;;16242.2;-0.288239;-0.000896912;-0.287384;3;;
115;;;;;;;16242.7;-0.293121;-0.000897827;-0.292267;3;;
117;;;;;;;16243.2;-0.298004;-0.000901184;-0.297241;3;;
119;;;;;;;16243.7;-0.302887;-0.0009021;-0.302032;3;;
121;;;;;;;16244.2;-0.30777;-0.00090332;-0.306885;3;;
123;;;;;;;16244.7;-0.312653;-0.000905151;-0.311859;3;;
125;;;;;;;16245.1;-0.317535;-0.000906372;-0.316681;3;;
127;;;;;;;16245.6;-0.322418;-0.000908813;-0.321564;3;;
129;;;;;;;16246.1;-0.327301;-0.000908203;-0.326416;3;;
131;;;;;;;16246.6;-0.332184;-0.000909424;-0.331299;3;;
133;;;;;;;16247.1;-0.337067;-0.00091217;-0.336151;3;;
135;;;;;;;16247.6;-0.341949;-0.00091156;-0.341034;3;;
137;;;;;;;16248.1;-0.346832;-0.000911255;-0.345947;3;;
139;;;;;;;16248.6;-0.351715;-0.00091217;-0.3508;3;;
141;;;;;;;16249.1;-0.356598;-0.000914001;-0.355682;3;;
143;;;;;;;16249.5;-0.361481;-0.000916138;-0.360535;3;;
145;;;;;;;16250;-0.366364;-0.000915222;-0.365448;3;;
147;;;;;;;16250.5;-0.371246;-0.000914917;-0.3703;3;;
149;;;;;;;16251;-0.376129;-0.000917664;-0.375183;3;;
151;;;;;;;16251.5;-0.381012;-0.000917969;-0.380035;3;;
153;;;;;;;16252;-0.385895;-0.000919189;-0.384918;3;;
155;;;;;;;16252.5;-0.390778;-0.0009198;-0.38974;3;;
157;;;;;;;16253;-0.39566;-0.000920715;-0.394653;3;;
159;;;;;;;16253.4;-0.400543;-0.000920105;-0.399567;3;;
161;;;;;;;16253.9;-0.405426;-0.000921326;-0.404449;3;;
163;;;;;;;16254.4;-0.410309;-0.000921631;-0.409302;3;;
165;;;;;;;16254.9;-0.415192;-0.000923462;-0.414124;3;;
167;;;;;;;16255.4;-0.420074;-0.000921326;-0.419067;3;;
169;;;;;;;16255.9;-0.424957;-0.000923767;-0.423981;3;;
171;;;;;;;16256.4;-0.42984;-0.000924377;-0.428741;3;;
173;;;;;;;16256.9;-0.434723;-0.000924377;-0.433655;3;;
175;;;;;;;16257.4;-0.439606;-0.000926514;-0.438477;3;;
177;;;;;;;16257.8;-0.444489;-0.000928345;-0.443451;3;;
179;;;;;;;16258.3;-0.449371;-0.000926208;-0.448364;3;;
181;;;;;;;16258.8;-0.454254;-0.00092804;-0.453094;3;;
183;;;;;;;16259.3;-0.459137;-0.000927734;-0.458008;3;;
185;;;;;;;16259.8;-0.46402;-0.00092865;-0.462952;3;;
187;;;;;;;16260.3;-0.468903;-0.000927429;-0.467804;3;;
189;;;;;;;16260.8;-0.473785;-0.00092926;-0.472626;3;;
191;;;;;;;16261.3;-0.478668;-0.000930176;-0.477509;3;;
193;;;;;;;16261.8;-0.483551;-0.000930481;-0.482391;3;;
195;;;;;;;16262.2;-0.488434;-0.000931091;-0.487305;3;;
197;;;;;;;16262.7;-0.493317;-0.000929565;-0.492157;3;;
199;;;;;;;16263.2;-0.498199;-0.000932617;-0.49704;3;;
201;;;;;;;16263.7;-0.503082;-0.000932007;-0.501953;3;;
203;;;;;;;16264.2;-0.507965;-0.000932312;-0.506744;3;;
205;;;;;;;16264.7;-0.512848;-0.000933838;-0.511658;3;;
207;;;;;;;16265.2;-0.517731;-0.000934753;-0.51651;3;;
209;;;;;;;16265.7;-0.522614;-0.000935974;-0.521362;3;;
211;;;;;;;16266.1;-0.527496;-0.000936279;-0.526276;3;;
213;;;;;;;16266.6;-0.532379;-0.000936584;-0.531128;3;;
215;;;;;;;16267.1;-0.537262;-0.000937195;-0.536072;3;;
217;;;;;;;16267.6;-0.542145;-0.000935364;-0.540863;3;;
219;;;;;;;16268.1;-0.547028;-0.000941162;-0.545746;3;;
221;;;;;;;16268.6;-0.55191;-0.000940552;-0.55069;3;;
223;;;;;;;16269.1;-0.556793;-0.000941772;-0.555542;3;;
225;;;;;;;16269.6;-0.561676;-0.000942688;-0.560364;3;;
227;;;;;;;16270.1;-0.566559;-0.000943909;-0.565216;3;;
229;;;;;;;16270.5;-0.571442;-0.00094574;-0.57019;3;;
231;;;;;;;16271;-0.576324;-0.000946045;-0.575012;3;;
233;;;;;;;16271.5;-0.581207;-0.000947571;-0.579956;3;;
235;;;;;;;16272;-0.58609;-0.000949707;-0.584808;3;;
237;;;;;;;16272.5;-0.590973;-0.000949707;-0.58963;3;;
239;;;;;;;16273;-0.595856;-0.000951843;-0.594513;3;;
241;;;;;;;16273.5;-0.600739;-0.00095459;-0.599365;3;;
243;;;;;;;16274;-0.605621;-0.000954285;-0.604279;3;;
245;;;;;;;16274.4;-0.610504;-0.000956421;-0.609161;3;;
247;;;;;;;16274.9;-0.615387;-0.000957947;-0.614044;3;;
249;;;;;;;16275.4;-0.62027;-0.000958862;-0.618896;3;;
251;;;;;;;16275.9;-0.625153;-0.000962219;-0.623749;3;;
253;;;;;;;16276.4;-0.630035;-0.000961914;-0.628693;3;;
255;;;;;;;16276.9;-0.634918;-0.000963745;-0.633545;3;;
257;;;;;;;16277.4;-0.639801;-0.000966797;-0.638458;3;;
259;;;;;;;16277.9;-0.644684;-0.000968323;-0.643311;3;;
261;;;;;;;16278.4;-0.649567;-0.000970154;-0.648193;3;;
263;;;;;;;16278.8;-0.654449;-0.000970764;-0.653107;3;;
265;;;;;;;16279.3;-0.659332;-0.00097168;-0.657959;3;;
267;;;;;;;16279.8;-0.664215;-0.00097229;-0.662811;3;;
269;;;;;;;16280.3;-0.669098;-0.000975647;-0.667694;3;;
271;;;;;;;16280.8;-0.673981;-0.000975647;-0.672607;3;;
273;;;;;;;16281.3;-0.678864;-0.000977173;-0.677399;3;;
275;;;;;;;16281.8;-0.683746;-0.000977783;-0.682373;3;;
277;;;;;;;16282.3;-0.688629;-0.000978394;-0.687256;3;;
279;;;;;;;16282.7;-0.693512;-0.000979919;-0.692139;3;;
281;;;;;;;16283.2;-0.698395;-0.00098053;-0.697021;3;;
283;;;;;;;16283.7;-0.703278;-0.000981445;-0.701874;3;;
285;;;;;;;16284.2;-0.70816;-0.000982361;-0.706726;3;;
287;;;;;;;16284.7;-0.713043;-0.000984802;-0.711639;3;;
289;;;;;;;16285.2;-0.717926;-0.000983582;-0.716522;3;;
291;;;;;;;16285.7;-0.722809;-0.000983887;-0.721405;3;;
293;;;;;;;16286.2;-0.727692;-0.000984802;-0.726288;3;;
295;;;;;;;16286.7;-0.732574;-0.000985413;-0.73111;3;;
297;;;;;;;16287.1;-0.737457;-0.000986023;-0.736023;3;;
299;;;;;;;16287.6;-0.74234;-0.000985107;-0.740936;3;;
301;;;;;;;16288.1;-0.747223;-0.000985107;-0.745789;3;;
303;;;;;;;16288.6;-0.752106;-0.000986328;-0.751038;3;;
305;;;;;;;16289.1;-0.756989;-0.000986328;-0.75592;3;;
307;;;;;;;16289.6;-0.761871;-0.000984497;-0.761108;3;;
309;;;;;;;16290.1;-0.766754;-0.000986023;-0.765381;3;;
311;;;;;;;16290.6;-0.771637;-0.000986328;-0.770569;3;;
313;;;;;;;16291;-0.77652;-0.000984192;-0.775757;3;;
315;;;;;;;16291.5;-0.781403;-0.000984497;-0.78064;3;;
317;;;;;;;16292;-0.786285;-0.000984497;-0.785828;3;;
319;;;;;;;16292.5;-0.791168;-0.000983276;-0.790405;3;;
321;;;;;;;16293;-0.796051;-0.000981445;-0.794678;3;;
323;;;;;;;16293.5;-0.800934;-0.00098175;-0.799866;3;;
325;;;;;;;16294;-0.805817;-0.000980225;-0.805664;3;;
327;;;;;;;16294.5;-0.810699;-0.000980225;-0.809631;3;;
329;;;;;;;16295;-0.815582;-0.000979919;-0.815125;3;;
331;;;;;;;16295.4;-0.820465;-0.000976868;-0.820007;3;;
333;;;;;;;16295.9;-0.825348;-0.000975647;-0.82428;3;;
335;;;;;;;16296.4;-0.830231;-0.000975342;-0.829773;3;;
337;;;;;;;16296.9;-0.835114;-0.0009729;-0.834045;3;;
339;;;;;;;16297.4;-0.839996;-0.000971985;-0.838928;3;;
341;;;;;;;16297.9;-0.844879;-0.000968933;-0.844421;3;;
343;;;;;;;16298.4;-0.849762;-0.000967712;-0.848083;3;;
345;;;;;;;16298.9;-0.854645;-0.000966492;-0.853577;3;;
347;;;;;;;16299.3;-0.859528;-0.000964355;-0.858765;3;;
349;;;;;;;16299.8;-0.86441;-0.000961914;-0.863342;3;;
351;;;;;;;16300.3;-0.869293;-0.000960693;-0.86853;3;;
353;;;;;;;16300.8;-0.874176;-0.000958252;-0.873413;3;;
355;;;;;;;16301.3;-0.879059;-0.000957642;-0.878296;3;;
357;;;;;;;16301.8;-0.883942;-0.000953674;-0.883179;3;;
359;;;;;;;16302.3;-0.888824;-0.000952759;-0.888367;3;;
361;;;;;;;16302.8;-0.893707;-0.000950012;-0.892944;3;;
363;;;;;;;16303.3;-0.89859;-0.000948486;-0.897827;3;;
365;;;;;;;16303.7;-0.89859;-0.000946655;-0.897827;3;;
367;;;;;;;16304.2;-0.893707;-0.00094696;-0.892639;3;;
369;;;;;;;16304.7;-0.888824;-0.00094696;-0.887756;3;;
371;;;;;;;16305.2;-0.883942;-0.000949097;-0.883179;3;;
373;;;;;;;16305.7;-0.879059;-0.000950317;-0.877991;3;;
375;;;;;;;16306.2;-0.874176;-0.000951538;-0.873718;3;;
377;;;;;;;16306.7;-0.869293;-0.000952148;-0.869141;3;;
379;;;;;;;16307.2;-0.86441;-0.000953674;-0.863647;3;;
381;;;;;;;16307.6;-0.859528;-0.000953979;-0.858765;3;;
383;;;;;;;16308.1;-0.854645;-0.000959473;-0.853882;3;;
385;;;;;;;16308.6;-0.849762;-0.000955505;-0.848999;3;;
387;;;;;;;16309.1;-0.844879;-0.000960083;-0.844116;3;;
389;;;;;;;16309.6;-0.839996;-0.000961914;-0.838928;3;;
391;;;;;;;16310.1;-0.835114;-0.00096344;-0.834045;3;;
393;;;;;;;16310.6;-0.830231;-0.000964355;-0.829468;3;;
395;;;;;;;16311.1;-0.825348;-0.00096405;-0.82428;3;;
397;;;;;;;16311.6;-0.820465;-0.000965881;-0.8203125;3;;
399;;;;;;;16312;-0.815582;-0.000967407;-0.814209;3;;
401;;;;;;;16312.5;-0.810699;-0.000966797;-0.809937;3;;
403;;;;;;;16313;-0.805817;-0.000969543;-0.805054;3;;
405;;;;;;;16313.5;-0.800934;-0.000968933;-0.799561;3;;
407;;;;;;;16314;-0.796051;-0.000969543;-0.794983;3;;
409;;;;;;;16314.5;-0.791168;-0.000971069;-0.78949;3;;
411;;;;;;;16315;-0.786285;-0.000971375;-0.785522;3;;
413;;;;;;;16315.5;-0.781403;-0.00097229;-0.780334;3;;
415;;;;;;;16315.9;-0.77652;-0.000970764;-0.776062;3;;
417;;;;;;;16316.4;-0.771637;-0.000970764;-0.770569;3;;
419;;;;;;;16316.9;-0.766754;-0.000971375;-0.765686;3;;
421;;;;;;;16317.4;-0.761871;-0.000972595;-0.761108;3;;
423;;;;;;;16317.9;-0.756989;-0.000972595;-0.75592;3;;
425;;;;;;;16318.4;-0.752106;-0.000971069;-0.751953;3;;
427;;;;;;;16318.9;-0.747223;-0.0009729;-0.745789;3;;
429;;;;;;;16319.4;-0.74234;-0.000972595;-0.740967;3;;
431;;;;;;;16319.9;-0.737457;-0.000971985;-0.735992;3;;
433;;;;;;;16320.3;-0.732574;-0.00097229;-0.731232;3;;
435;;;;;;;16320.8;-0.727692;-0.00097168;-0.726257;3;;
437;;;;;;;16321.3;-0.722809;-0.000971375;-0.721436;3;;
439;;;;;;;16321.8;-0.717926;-0.000969543;-0.716492;3;;
441;;;;;;;16322.3;-0.713043;-0.000968933;-0.711609;3;;
443;;;;;;;16322.8;-0.70816;-0.000967712;-0.706726;3;;
445;;;;;;;16323.3;-0.703278;-0.000967712;-0.701874;3;;
447;;;;;;;16323.8;-0.698395;-0.000967407;-0.69693;3;;
449;;;;;;;16324.3;-0.693512;-0.000964966;-0.692078;3;;
451;;;;;;;16324.7;-0.688629;-0.000964355;-0.687195;3;;
453;;;;;;;16325.2;-0.683746;-0.000965271;-0.682343;3;;
455;;;;;;;16325.7;-0.678864;-0.000961914;-0.67749;3;;
457;;;;;;;16326.2;-0.673981;-0.000962524;-0.672607;3;;
459;;;;;;;16326.7;-0.669098;-0.000961304;-0.667664;3;;
461;;;;;;;16327.2;-0.664215;-0.000959778;-0.662811;3;;
463;;;;;;;16327.7;-0.659332;-0.000958252;-0.657959;3;;
465;;;;;;;16328.2;-0.654449;-0.000958557;-0.653076;3;;
467;;;;;;;16328.6;-0.649567;-0.000957642;-0.648254;3;;
469;;;;;;;16329.1;-0.644684;-0.000956116;-0.643311;3;;
471;;;;;;;16329.6;-0.639801;-0.000954895;-0.638458;3;;
473;;;;;;;16330.1;-0.634918;-0.000952454;-0.633545;3;;
475;;;;;;;16330.6;-0.630035;-0.000951843;-0.628693;3;;
477;;;;;;;16331.1;-0.625153;-0.000951843;-0.623779;3;;
479;;;;;;;16331.6;-0.62027;-0.000947876;-0.618866;3;;
481;;;;;;;16332.1;-0.615387;-0.000948792;-0.613983;3;;
483;;;;;;;16332.6;-0.610504;-0.000947266;-0.6091;3;;
485;;;;;;;16333;-0.605621;-0.00094635;-0.604248;3;;
487;;;;;;;16333.5;-0.600739;-0.000944214;-0.599396;3;;
489;;;;;;;16334;-0.595856;-0.000943298;-0.594513;3;;
491;;;;;;;16334.5;-0.590973;-0.000940247;-0.589661;3;;
493;;;;;;;16335;-0.58609;-0.000941162;-0.584778;3;;
495;;;;;;;16335.5;-0.581207;-0.000939636;-0.579926;3;;
497;;;;;;;16336;-0.576324;-0.000937805;-0.575012;3;;
499;;;;;;;16336.5;-0.571442;-0.000937805;-0.570099;3;;
501;;;;;;;16336.9;-0.566559;-0.000936584;-0.565308;3;;
503;;;;;;;16337.4;-0.561676;-0.000935669;-0.560425;3;;
505;;;;;;;16337.9;-0.556793;-0.000935974;-0.555511;3;;
507;;;;;;;16338.4;-0.55191;-0.000933838;-0.550659;3;;
509;;;;;;;16338.9;-0.547028;-0.000932617;-0.545807;3;;
511;;;;;;;16339.4;-0.542145;-0.000932312;-0.540924;3;;
513;;;;;;;16339.9;-0.537262;-0.000931702;-0.536041;3;;
515;;;;;;;16340.4;-0.532379;-0.000929871;-0.531189;3;;
517;;;;;;;16340.9;-0.527496;-0.000930176;-0.526276;3;;
519;;;;;;;16341.3;-0.522614;-0.000928345;-0.521393;3;;
521;;;;;;;16341.8;-0.517731;-0.000927429;-0.516479;3;;
523;;;;;;;16342.3;-0.512848;-0.000928345;-0.511688;3;;
525;;;;;;;16342.8;-0.507965;-0.000927124;-0.506683;3;;
527;;;;;;;16343.3;-0.503082;-0.000926514;-0.501953;3;;
529;;;;;;;16343.8;-0.498199;-0.000925598;-0.49707;3;;
531;;;;;;;16344.3;-0.493317;-0.000924683;-0.492157;3;;
533;;;;;;;16344.8;-0.488434;-0.000923767;-0.487274;3;;
535;;;;;;;16345.2;-0.483551;-0.000923462;-0.482422;3;;
537;;;;;;;16345.7;-0.478668;-0.000922852;-0.477539;3;;
539;;;;;;;16346.2;-0.473785;-0.000922241;-0.472656;3;;
541;;;;;;;16346.7;-0.468903;-0.000922852;-0.467773;3;;
543;;;;;;;16347.2;-0.46402;-0.000922241;-0.462952;3;;
545;;;;;;;16347.7;-0.459137;-0.000921021;-0.458099;3;;
547;;;;;;;16348.2;-0.454254;-0.000922241;-0.453156;3;;
549;;;;;;;16348.7;-0.449371;-0.000921631;-0.448273;3;;
551;;;;;;;16349.2;-0.444489;-0.000918884;-0.44339;3;;
553;;;;;;;16349.6;-0.439606;-0.00092041;-0.438507;3;;
555;;;;;;;16350.1;-0.434723;-0.000919495;-0.433655;3;;
557;;;;;;;16350.6;-0.42984;-0.000916748;-0.428833;3;;
559;;;;;;;16351.1;-0.424957;-0.000918274;-0.42395;3;;
561;;;;;;;16351.6;-0.420074;-0.000916138;-0.419067;3;;
563;;;;;;;16352.1;-0.415192;-0.000916748;-0.414215;3;;
565;;;;;;;16352.6;-0.410309;-0.000916138;-0.409332;3;;
567;;;;;;;16353.1;-0.405426;-0.000913696;-0.404419;3;;
569;;;;;;;16353.5;-0.400543;-0.000913086;-0.399597;3;;
571;;;;;;;16354;-0.39566;-0.000912476;-0.394653;3;;
573;;;;;;;16354.5;-0.390778;-0.000914612;-0.389771;3;;
575;;;;;;;16355;-0.385895;-0.000911865;-0.384888;3;;
577;;;;;;;16355.5;-0.381012;-0.00091217;-0.380035;3;;
579;;;;;;;16356;-0.376129;-0.000910034;-0.375183;3;;
581;;;;;;;16356.5;-0.371246;-0.00091095;-0.370331;3;;
583;;;;;;;16357;-0.366364;-0.000909119;-0.365417;3;;
585;;;;;;;16357.5;-0.361481;-0.000907898;-0.360565;3;;
587;;;;;;;16357.9;-0.356598;-0.000907898;-0.355713;3;;
589;;;;;;;16358.4;-0.351715;-0.000907898;-0.350769;3;;
591;;;;;;;16358.9;-0.346832;-0.000908508;-0.345978;3;;
593;;;;;;;16359.4;-0.341949;-0.000905457;-0.341095;3;;
595;;;;;;;16359.9;-0.337067;-0.000904541;-0.336182;3;;
597;;;;;;;16360.4;-0.332184;-0.000903015;-0.33136;3;;
599;;;;;;;16360.9;-0.327301;-0.000902405;-0.326477;3;;
601;;;;;;;16361.4;-0.322418;-0.000899963;-0.321564;3;;
603;;;;;;;16361.8;-0.317535;-0.0008984375;-0.316681;3;;
605;;;;;;;16362.3;-0.312653;-0.000899353;-0.311829;3;;
607;;;;;;;16362.8;-0.30777;-0.000897217;-0.306915;3;;
609;;;;;;;16363.3;-0.302887;-0.000895691;-0.302094;3;;
611;;;;;;;16363.8;-0.298004;-0.000894775;-0.297089;3;;
613;;;;;;;16364.3;-0.293121;-0.000892944;-0.292267;3;;
615;;;;;;;16364.8;-0.288239;-0.000892944;-0.287415;3;;
617;;;;;;;16365.3;-0.283356;-0.000889893;-0.282532;3;;
619;;;;;;;16365.8;-0.278473;-0.000887451;-0.277649;3;;
621;;;;;;;16366.2;-0.27359;-0.000886536;-0.272797;3;;
623;;;;;;;16366.7;-0.268707;-0.000884399;-0.267914;3;;
625;;;;;;;16367.2;-0.263824;-0.000882568;-0.263031;3;;
627;;;;;;;16367.7;-0.258942;-0.000878601;-0.258209;3;;
629;;;;;;;16368.2;-0.254059;-0.000877075;-0.253357;3;;
631;;;;;;;16368.7;-0.249176;-0.000874329;-0.248505;3;;
633;;;;;;;16369.2;-0.244293;-0.000871277;-0.243561;3;;
635;;;;;;;16369.7;-0.23941;-0.000867615;-0.238647;3;;
637;;;;;;;16370.1;-0.234528;-0.000864868;-0.233795;3;;
639;;;;;;;16370.6;-0.229645;-0.000860596;-0.228882;3;;
641;;;;;;;16371.1;-0.224762;-0.000856628;-0.224091;3;;
643;;;;;;;16371.6;-0.219879;-0.000851135;-0.219116;3;;
645;;;;;;;16372.1;-0.214996;-0.000846863;-0.214325;3;;
647;;;;;;;16372.6;-0.210114;-0.000840759;-0.209473;3;;
649;;;;;;;16373.1;-0.205231;-0.000834656;-0.20459;3;;
651;;;;;;;16373.6;-0.200348;-0.000828552;-0.199677;3;;
653;;;;;;;16374.1;-0.195465;-0.000819702;-0.194824;3;;
655;;;;;;;16374.5;-0.190582;-0.000810242;-0.189972;3;;
657;;;;;;;16375;-0.185699;-0.000800781;-0.18515;3;;
659;;;;;;;16375.5;-0.180817;-0.00078949;-0.180237;3;;
661;;;;;;;16376;-0.175934;-0.000775452;-0.175354;3;;
663;;;;;;;16376.5;-0.171051;-0.000761108;-0.170471;3;;
665;;;;;;;16377;-0.166168;-0.000743103;-0.165619;3;;
667;;;;;;;16377.5;-0.161285;-0.000724182;-0.160736;3;;
669;;;;;;;16378;-0.156403;-0.000702515;-0.155914;3;;
671;;;;;;;16378.4;-0.15152;-0.000679016;-0.15097;3;;
673;;;;;;;16378.9;-0.146637;-0.000652466;-0.146118;3;;
675;;;;;;;16379.4;-0.141754;-0.000624084;-0.141266;3;;
677;;;;;;;16379.9;-0.136871;-0.000593262;-0.136383;3;;
679;;;;;;;16380.4;-0.131989;-0.000560608;-0.131531;3;;
681;;;;;;;16380.9;-0.127106;-0.000526123;-0.126648;3;;
683;;;;;;;16381.4;-0.122223;-0.000490173;-0.121765;3;;
685;;;;;;;16381.9;-0.11734;-0.000453156;-0.116852;3;;
687;;;;;;;16382.4;-0.112457;-0.000415375;-0.112;3;;
689;;;;;;;16382.8;-0.107574;-0.000376556;-0.107086;3;;
691;;;;;;;16383.3;-0.102692;-0.000338226;-0.102295;3;;
693;;;;;;;16383.8;-0.0978088;-0.000300049;-0.0974121;3;;
695;;;;;;;16384.3;-0.092926;-0.000262482;-0.0925293;3;;
697;;;;;;;16384.8;-0.0880432;-0.000226471;-0.087677;3;;
699;;;;;;;16385.3;-0.0831604;-0.000192017;-0.0827942;3;;
701;;;;;;;16385.8;-0.0782776;-0.000159546;-0.0779114;3;;
703;;;;;;;16386.3;-0.0733948;-0.000129669;-0.0730591;3;;
705;;;;;;;16386.8;-0.068512;-0.000102753;-0.0681458;3;;
707;;;;;;;16387.2;-0.0636292;-7.9071e-05;-0.063324;3;;
709;;;;;;;16387.7;-0.0587463;-5.9021e-05;-0.0584717;3;;
711;;;;;;;16388.2;-0.0538635;-4.26025e-05;-0.0535583;3;;
713;;;;;;;16388.7;-0.0489807;-2.95837e-05;-0.048584;3;;
715;;;;;;;16389.2;-0.0440979;-1.98151e-05;-0.0437256;3;;
717;;;;;;;16389.7;-0.0392151;-1.27106e-05;-0.0388428;3;;
719;;;;;;;16390.2;-0.0343323;-7.78198e-06;-0.0339813;3;;
721;;;;;;;16390.7;-0.0294495;-4.47205e-06;-0.0291077;3;;
723;;;;;;;16391.1;-0.0245667;-2.28424e-06;-0.0242279;3;;
725;;;;;;;16391.6;-0.0196838;-8.90198e-07;-0.0193726;3;;
727;;;;;;;16392.1;-0.014801;-1.49536e-08;-0.0144897;3;;
729;;;;;;;16392.6;-0.00991821;5.50537e-07;-0.00962219;3;;
731;;;;;;;16393.1;-0.0050354;8.81958e-07;-0.00472412;3;;
733;;;;;;;16393.6;-0.000152588;1.09741e-06;8.54492e-05;3;;
735;;;;;;;16394.1;0.00473022;1.24207e-06;0.00498657;3;;
737;;;;;;;16394.6;0.00961304;1.32721e-06;0.00986938;3;;
739;;;;;;;16395.1;0.0144958;1.37695e-06;0.0147614;3;;
741;;;;;;;16395.5;0.0193787;1.43158e-06;0.0196381;3;;
743;;;;;;;16396;0.0242615;1.46393e-06;0.0245728;3;;
745;;;;;;;16396.5;0.0291443;1.48041e-06;0.0294464;3;;
747;;;;;;;16397;0.0340271;1.51245e-06;0.034259;3;;
749;;;;;;;16397.5;0.0389099;1.53168e-06;0.0391296;3;;
751;;;;;;;16398;0.0437927;1.5451e-06;0.0440765;3;;
753;;;;;;;16398.5;0.0486755;1.57745e-06;0.0488953;3;;
755;;;;;;;16399;0.0535583;1.60614e-06;0.0535583;3;;
757;;;;;;;16399.4;0.0584412;1.62445e-06;0.0584412;3;;
759;;;;;;;16399.9;0.063324;1.65527e-06;0.063324;3;;
761;;;;;;;16400.4;0.0682068;1.68091e-06;0.0681152;3;;
763;;;;;;;16400.9;0.0730896;1.69922e-06;0.072998;3;;
765;;;;;;;16401.4;0.0779724;1.74561e-06;0.0779114;3;;
767;;;;;;;16401.9;0.0828552;1.77765e-06;0.0827942;3;;
769;;;;;;;16402.4;0.087738;1.80664e-06;0.087616;3;;
771;;;;;;;16402.9;0.0926208;1.8634e-06;0.0925598;3;;
773;;;;;;;16403.4;0.0975037;1.90308e-06;0.0974426;3;;
775;;;;;;;16403.8;0.102386;1.94946e-06;0.102295;3;;
777;;;;;;;16404.3;0.107269;2.0108e-06;0.107208;3;;
779;;;;;;;16404.8;0.112152;2.07214e-06;0.112061;3;;
781;;;;;;;16405.3;0.107269;1.67847e-06;0.107239;3;;
783;;;;;;;16405.8;0.102386;1.48285e-06;0.102356;3;;
785;;;;;;;16406.3;0.0975037;1.34155e-06;0.0975342;3;;
787;;;;;;;16406.8;0.0926208;1.22467e-06;0.0925903;3;;
789;;;;;;;16407.3;0.087738;1.14075e-06;0.0877686;3;;
791;;;;;;;16407.7;0.0828552;1.06934e-06;0.0828552;3;;
793;;;;;;;16408.2;0.0779724;9.88159e-07;0.0779724;3;;
795;;;;;;;16408.7;0.0730896;9.39941e-07;0.0730896;3;;
797;;;;;;;16409.2;0.0682068;8.9386e-07;0.0682373;3;;
799;;;;;;;16409.7;0.063324;8.42285e-07;0.0633545;3;;
801;;;;;;;16410.2;0.0584412;8.00171e-07;0.0583801;3;;
803;;;;;;;16410.7;0.0535583;7.58057e-07;0.0536194;3;;
805;;;;;;;16411.2;0.0486755;7.1106e-07;0.0489319;3;;
807;;;;;;;16411.7;0.0437927;6.88477e-07;0.044046;3;;
809;;;;;;;16412.1;0.0389099;6.44531e-07;0.0391815;3;;
811;;;;;;;16412.6;0.0340271;6.13403e-07;0.0342957;3;;
813;;;;;;;16413.1;0.0291443;5.78003e-07;0.0294556;3;;
815;;;;;;;16413.6;0.0242615;5.41382e-07;0.0245422;3;;
817;;;;;;;16414.1;0.0193787;4.93469e-07;0.0197174;3;;
819;;;;;;;16414.6;0.0144958;4.47693e-07;0.01474;3;;
821;;;;;;;16415.1;0.00961304;3.69568e-07;0.00986328;3;;
823;;;;;;;16415.6;0.00473022;2.78625e-07;0.00500488;3;;
825;;;;;;;16416;-0.000152588;1.38062e-07;0.000128174;3;;
827;;;;;;;16416.5;-0.0050354;-7.76367e-08;-0.00472717;3;;
829;;;;;;;16417;-0.00991821;-4.12598e-07;-0.00960083;3;;
831;;;;;;;;;;;;;
833;;;;;;;;;;;;;
835;;;;;;;;;;;;;
837;;;;;;;;;;;;;
839;;;;;;;;;;;;;
841;;;;;;;;;;;;;
843;;;;;;;;;;;;;
845;;;;;;;;;;;;;
847;;;;;;;;;;;;;
849;;;;;;;;;;;;;
851;;;;;;;;;;;;;
853;;;;;;;;;;;;;
855;;;;;;;;;;;;;
857;;;;;;;;;;;;;
859;;;;;;;;;;;;;
861;;;;;;;;;;;;;
863;;;;;;;;;;;;;
865;;;;;;;;;;;;;
867;;;;;;;;;;;;;
869;;;;;;;;;;;;;
871;;;;;;;;;;;;;
873;;;;;;;;;;;;;
875;;;;;;;;;;;;;
877;;;;;;;;;;;;;
879;;;;;;;;;;;;;
881;;;;;;;;;;;;;
883;;;;;;;;;;;;;
885;;;;;;;;;;;;;
887;;;;;;;;;;;;;
889;;;;;;;;;;;;;
891;;;;;;;;;;;;;
893;;;;;;;;;;;;;
895;;;;;;;;;;;;;
897;;;;;;;;;;;;;
899;;;;;;;;;;;;;
901;;;;;;;;;;;;;
903;;;;;;;;;;;;;
905;;;;;;;;;;;;;
907;;;;;;;;;;;;;
909;;;;;;;;;;;;;
911;;;;;;;;;;;;;
913;;;;;;;;;;;;;
915;;;;;;;;;;;;;
917;;;;;;;;;;;;;
919;;;;;;;;;;;;;
921;;;;;;;;;;;;;
923;;;;;;;;;;;;;
925;;;;;;;;;;;;;
927;;;;;;;;;;;;;
929;;;;;;;;;;;;;
931;;;;;;;;;;;;;
933;;;;;;;;;;;;;
935;;;;;;;;;;;;;
937;;;;;;;;;;;;;
939;;;;;;;;;;;;;
941;;;;;;;;;;;;;
943;;;;;;;;;;;;;
945;;;;;;;;;;;;;
947;;;;;;;;;;;;;
949;;;;;;;;;;;;;
951;;;;;;;;;;;;;
953;;;;;;;;;;;;;
955;;;;;;;;;;;;;
957;;;;;;;;;;;;;
959;;;;;;;;;;;;;
961;;;;;;;;;;;;;
963;;;;;;;;;;;;;
965;;;;;;;;;;;;;
967;;;;;;;;;;;;;
969;;;;;;;;;;;;;
971;;;;;;;;;;;;;
973;;;;;;;;;;;;;
975;;;;;;;;;;;;;
977;;;;;;;;;;;;;
979;;;;;;;;;;;;;
981;;;;;;;;;;;;;
983;;;;;;;;;;;;;
985;;;;;;;;;;;;;
987;;;;;;;;;;;;;
989;;;;;;;;;;;;;
991;;;;;;;;;;;;;
993;;;;;;;;;;;;;
995;;;;;;;;;;;;;
997;;;;;;;;;;;;;
999;;;;;;;;;;;;;
1001;;;;;;;;;;;;;
1003;;;;;;;;;;;;;
1005;;;;;;;;;;;;;
1007;;;;;;;;;;;;;
1009;;;;;;;;;;;;;
1011;;;;;;;;;;;;;
1013;;;;;;;;;;;;;
1015;;;;;;;;;;;;;
1017;;;;;;;;;;;;;
1019;;;;;;;;;;;;;
1021;;;;;;;;;;;;;
1023;;;;;;;;;;;;;
1025;;;;;;;;;;;;;
1027;;;;;;;;;;;;;
1029;;;;;;;;;;;;;
1031;;;;;;;;;;;;;
1033;;;;;;;;;;;;;
1035;;;;;;;;;;;;;
1037;;;;;;;;;;;;;
1039;;;;;;;;;;;;;
1041;;;;;;;;;;;;;
1043;;;;;;;;;;;;;
1045;;;;;;;;;;;;;
1047;;;;;;;;;;;;;
1049;;;;;;;;;;;;;
1051;;;;;;;;;;;;;
1053;;;;;;;;;;;;;
1055;;;;;;;;;;;;;
1057;;;;;;;;;;;;;
1059;;;;;;;;;;;;;
1061;;;;;;;;;;;;;
1063;;;;;;;;;;;;;
1065;;;;;;;;;;;;;
1067;;;;;;;;;;;;;
1069;;;;;;;;;;;;;
1071;;;;;;;;;;;;;
1073;;;;;;;;;;;;;
1075;;;;;;;;;;;;;
1077;;;;;;;;;;;;;
1079;;;;;;;;;;;;;
1081;;;;;;;;;;;;;
1083;;;;;;;;;;;;;
1085;;;;;;;;;;;;;
1087;;;;;;;;;;;;;
1089;;;;;;;;;;;;;
1091;;;;;;;;;;;;;
1093;;;;;;;;;;;;;
1095;;;;;;;;;;;;;
1097;;;;;;;;;;;;;
1099;;;;;;;;;;;;;
1101;;;;;;;;;;;;;
1103;;;;;;;;;;;;;
1105;;;;;;;;;;;;;
1107;;;;;;;;;;;;;
1109;;;;;;;;;;;;;
1111;;;;;;;;;;;;;
1113;;;;;;;;;;;;;
1115;;;;;;;;;;;;;
1117;;;;;;;;;;;;;
1119;;;;;;;;;;;;;
1121;;;;;;;;;;;;;
1123;;;;;;;;;;;;;
1125;;;;;;;;;;;;;
1127;;;;;;;;;;;;;
1129;;;;;;;;;;;;;
1131;;;;;;;;;;;;;
1133;;;;;;;;;;;;;
1135;;;;;;;;;;;;;
1137;;;;;;;;;;;;;
1139;;;;;;;;;;;;;
1141;;;;;;;;;;;;;
1143;;;;;;;;;;;;;
1145;;;;;;;;;;;;;
1147;;;;;;;;;;;;;
1149;;;;;;;;;;;;;
1151;;;;;;;;;;;;;
1153;;;;;;;;;;;;;
1155;;;;;;;;;;;;;
1157;;;;;;;;;;;;;
1159;;;;;;;;;;;;;
1161;;;;;;;;;;;;;
1163;;;;;;;;;;;;;
1165;;;;;;;;;;;;;
1167;;;;;;;;;;;;;
1169;;;;;;;;;;;;;
1171;;;;;;;;;;;;;
1173;;;;;;;;;;;;;
1175;;;;;;;;;;;;;
1177;;;;;;;;;;;;;
1179;;;;;;;;;;;;;
1181;;;;;;;;;;;;;
1183;;;;;;;;;;;;;
1185;;;;;;;;;;;;;
1187;;;;;;;;;;;;;
1189;;;;;;;;;;;;;
1191;;;;;;;;;;;;;
1193;;;;;;;;;;;;;
1195;;;;;;;;;;;;;
1197;;;;;;;;;;;;;
1199;;;;;;;;;;;;;
1201;;;;;;;;;;;;;
1203;;;;;;;;;;;;;
1205;;;;;;;;;;;;;
1207;;;;;;;;;;;;;
1209;;;;;;;;;;;;;
1211;;;;;;;;;;;;;
1213;;;;;;;;;;;;;
1215;;;;;;;;;;;;;
1217;;;;;;;;;;;;;
1219;;;;;;;;;;;;;
1221;;;;;;;;;;;;;
1223;;;;;;;;;;;;;
1225;;;;;;;;;;;;;
1227;;;;;;;;;;;;;
1229;;;;;;;;;;;;;
1231;;;;;;;;;;;;;
1233;;;;;;;;;;;;;
1235;;;;;;;;;;;;;
1237;;;;;;;;;;;;;
1239;;;;;;;;;;;;;
1241;;;;;;;;;;;;;
1243;;;;;;;;;;;;;
1245;;;;;;;;;;;;;
1247;;;;;;;;;;;;;
1249;;;;;;;;;;;;;
1251;;;;;;;;;;;;;
1253;;;;;;;;;;;;;
1255;;;;;;;;;;;;;
1257;;;;;;;;;;;;;
1259;;;;;;;;;;;;;
1261;;;;;;;;;;;;;
1263;;;;;;;;;;;;;
1265;;;;;;;;;;;;;
1267;;;;;;;;;;;;;
1269;;;;;;;;;;;;;
1271;;;;;;;;;;;;;
1273;;;;;;;;;;;;;
1275;;;;;;;;;;;;;
1277;;;;;;;;;;;;;
1279;;;;;;;;;;;;;
1281;;;;;;;;;;;;;
1283;;;;;;;;;;;;;
1285;;;;;;;;;;;;;
1287;;;;;;;;;;;;;
1289;;;;;;;;;;;;;
1291;;;;;;;;;;;;;
1293;;;;;;;;;;;;;
1295;;;;;;;;;;;;;
1297;;;;;;;;;;;;;
1299;;;;;;;;;;;;;
1301;;;;;;;;;;;;;
1303;;;;;;;;;;;;;
1305;;;;;;;;;;;;;
1307;;;;;;;;;;;;;
1309;;;;;;;;;;;;;
1311;;;;;;;;;;;;;
1313;;;;;;;;;;;;;
1315;;;;;;;;;;;;;
1317;;;;;;;;;;;;;
1319;;;;;;;;;;;;;
1321;;;;;;;;;;;;;
1323;;;;;;;;;;;;;
1325;;;;;;;;;;;;;
1327;;;;;;;;;;;;;
1329;;;;;;;;;;;;;
1331;;;;;;;;;;;;;
1333;;;;;;;;;;;;;
1335;;;;;;;;;;;;;
1337;;;;;;;;;;;;;
1339;;;;;;;;;;;;;
1341;;;;;;;;;;;;;
1343;;;;;;;;;;;;;
1345;;;;;;;;;;;;;
1347;;;;;;;;;;;;;
1349;;;;;;;;;;;;;
1351;;;;;;;;;;;;;
1353;;;;;;;;;;;;;
1355;;;;;;;;;;;;;
1357;;;;;;;;;;;;;
1359;;;;;;;;;;;;;
1361;;;;;;;;;;;;;
1363;;;;;;;;;;;;;
1365;;;;;;;;;;;;;
1367;;;;;;;;;;;;;
1369;;;;;;;;;;;;;
1371;;;;;;;;;;;;;
1373;;;;;;;;;;;;;
1375;;;;;;;;;;;;;
1377;;;;;;;;;;;;;
1379;;;;;;;;;;;;;
1381;;;;;;;;;;;;;
1383;;;;;;;;;;;;;
1385;;;;;;;;;;;;;
1387;;;;;;;;;;;;;
1389;;;;;;;;;;;;;
1391;;;;;;;;;;;;;
1393;;;;;;;;;;;;;
1395;;;;;;;;;;;;;
1397;;;;;;;;;;;;;
1399;;;;;;;;;;;;;
1401;;;;;;;;;;;;;
1403;;;;;;;;;;;;;
1405;;;;;;;;;;;;;
1407;;;;;;;;;;;;;
1409;;;;;;;;;;;;;
1411;;;;;;;;;;;;;
1413;;;;;;;;;;;;;
1415;;;;;;;;;;;;;
1417;;;;;;;;;;;;;
1419;;;;;;;;;;;;;
1421;;;;;;;;;;;;;
1423;;;;;;;;;;;;;
1425;;;;;;;;;;;;;
1427;;;;;;;;;;;;;
1429;;;;;;;;;;;;;
1431;;;;;;;;;;;;;
1433;;;;;;;;;;;;;
1435;;;;;;;;;;;;;
1437;;;;;;;;;;;;;
1439;;;;;;;;;;;;;
1441;;;;;;;;;;;;;
1443;;;;;;;;;;;;;
1445;;;;;;;;;;;;;
1447;;;;;;;;;;;;;
1449;;;;;;;;;;;;;
1451;;;;;;;;;;;;;
1453;;;;;;;;;;;;;
1455;;;;;;;;;;;;;
1457;;;;;;;;;;;;;
1459;;;;;;;;;;;;;
1461;;;;;;;;;;;;;
1463;;;;;;;;;;;;;
1465;;;;;;;;;;;;;
1467;;;;;;;;;;;;;
1469;;;;;;;;;;;;;
1471;;;;;;;;;;;;;
1473;;;;;;;;;;;;;
1475;;;;;;;;;;;;;
1477;;;;;;;;;;;;;
1479;;;;;;;;;;;;;
1481;;;;;;;;;;;;;
1483;;;;;;;;;;;;;
1485;;;;;;;;;;;;;
1487;;;;;;;;;;;;;
1489;;;;;;;;;;;;;
1491;;;;;;;;;;;;;
1493;;;;;;;;;;;;;
1495;;;;;;;;;;;;;
1497;;;;;;;;;;;;;
1499;;;;;;;;;;;;;
1501;;;;;;;;;;;;;
1503;;;;;;;;;;;;;
1505;;;;;;;;;;;;;
1507;;;;;;;;;;;;;
1509;;;;;;;;;;;;;
1511;;;;;;;;;;;;;
1513;;;;;;;;;;;;;
1515;;;;;;;;;;;;;
1517;;;;;;;;;;;;;
1519;;;;;;;;;;;;;
1521;;;;;;;;;;;;;
1523;;;;;;;;;;;;;
1525;;;;;;;;;;;;;
1527;;;;;;;;;;;;;
1529;;;;;;;;;;;;;
1531;;;;;;;;;;;;;
1533;;;;;;;;;;;;;
1535;;;;;;;;;;;;;
1537;;;;;;;;;;;;;
1539;;;;;;;;;;;;;
1541;;;;;;;;;;;;;
1543;;;;;;;;;;;;;
1545;;;;;;;;;;;;;
1547;;;;;;;;;;;;;
1549;;;;;;;;;;;;;
1551;;;;;;;;;;;;;
1553;;;;;;;;;;;;;
1555;;;;;;;;;;;;;
1557;;;;;;;;;;;;;
1559;;;;;;;;;;;;;
1561;;;;;;;;;;;;;
1563;;;;;;;;;;;;;
1565;;;;;;;;;;;;;
1567;;;;;;;;;;;;;
1569;;;;;;;;;;;;;
1571;;;;;;;;;;;;;
1573;;;;;;;;;;;;;
1575;;;;;;;;;;;;;
1577;;;;;;;;;;;;;
1579;;;;;;;;;;;;;
1581;;;;;;;;;;;;;
1583;;;;;;;;;;;;;
1585;;;;;;;;;;;;;
1587;;;;;;;;;;;;;
1589;;;;;;;;;;;;;
1591;;;;;;;;;;;;;
1593;;;;;;;;;;;;;
1595;;;;;;;;;;;;;
1597;;;;;;;;;;;;;
1599;;;;;;;;;;;;;
1601;;;;;;;;;;;;;
1603;;;;;;;;;;;;;
1605;;;;;;;;;;;;;
1607;;;;;;;;;;;;;
1609;;;;;;;;;;;;;
1611;;;;;;;;;;;;;
1613;;;;;;;;;;;;;
1615;;;;;;;;;;;;;
1617;;;;;;;;;;;;;
1619;;;;;;;;;;;;;
1621;;;;;;;;;;;;;
1623;;;;;;;;;;;;;
1625;;;;;;;;;;;;;
1627;;;;;;;;;;;;;
1629;;;;;;;;;;;;;
1631;;;;;;;;;;;;;
1633;;;;;;;;;;;;;
1635;;;;;;;;;;;;;
1637;;;;;;;;;;;;;
1639;;;;;;;;;;;;;
1641;;;;;;;;;;;;;
1643;;;;;;;;;;;;;
1645;;;;;;;;;;;;;
1647;;;;;;;;;;;;;
1649;;;;;;;;;;;;;
1651;;;;;;;;;;;;;
1653;;;;;;;;;;;;;
1655;;;;;;;;;;;;;
1657;;;;;;;;;;;;;
1659;;;;;;;;;;;;;
1661;;;;;;;;;;;;;
1663;;;;;;;;;;;;;
1665;;;;;;;;;;;;;
1667;;;;;;;;;;;;;
1669;;;;;;;;;;;;;
1671;;;;;;;;;;;;;
1673;;;;;;;;;;;;;
1675;;;;;;;;;;;;;
1677;;;;;;;;;;;;;
1679;;;;;;;;;;;;;
1681;;;;;;;;;;;;;
1683;;;;;;;;;;;;;
1685;;;;;;;;;;;;;
1687;;;;;;;;;;;;;
1689;;;;;;;;;;;;;
1691;;;;;;;;;;;;;
1693;;;;;;;;;;;;;
1695;;;;;;;;;;;;;
1697;;;;;;;;;;;;;
1699;;;;;;;;;;;;;
1701;;;;;;;;;;;;;
1703;;;;;;;;;;;;;
1705;;;;;;;;;;;;;
1707;;;;;;;;;;;;;
1709;;;;;;;;;;;;;
1711;;;;;;;;;;;;;
1713;;;;;;;;;;;;;
1715;;;;;;;;;;;;;
1717;;;;;;;;;;;;;
1719;;;;;;;;;;;;;
1721;;;;;;;;;;;;;
1723;;;;;;;;;;;;;
1725;;;;;;;;;;;;;
1727;;;;;;;;;;;;;
1729;;;;;;;;;;;;;
1731;;;;;;;;;;;;;
1733;;;;;;;;;;;;;
1735;;;;;;;;;;;;;
1737;;;;;;;;;;;;;
1739;;;;;;;;;;;;;
1741;;;;;;;;;;;;;
1743;;;;;;;;;;;;;
1745;;;;;;;;;;;;;
1747;;;;;;;;;;;;;
1749;;;;;;;;;;;;;
1751;;;;;;;;;;;;;
1753;;;;;;;;;;;;;
1755;;;;;;;;;;;;;
1757;;;;;;;;;;;;;
1759;;;;;;;;;;;;;
1761;;;;;;;;;;;;;
1763;;;;;;;;;;;;;
1765;;;;;;;;;;;;;
1767;;;;;;;;;;;;;
1769;;;;;;;;;;;;;
1771;;;;;;;;;;;;;
1773;;;;;;;;;;;;;
1775;;;;;;;;;;;;;
1777;;;;;;;;;;;;;
1779;;;;;;;;;;;;;
1781;;;;;;;;;;;;;
1783;;;;;;;;;;;;;
1785;;;;;;;;;;;;;
1787;;;;;;;;;;;;;
1789;;;;;;;;;;;;;
1791;;;;;;;;;;;;;
1793;;;;;;;;;;;;;
1795;;;;;;;;;;;;;
1797;;;;;;;;;;;;;
1799;;;;;;;;;;;;;
1801;;;;;;;;;;;;;
1803;;;;;;;;;;;;;
1805;;;;;;;;;;;;;
1807;;;;;;;;;;;;;
1809;;;;;;;;;;;;;
1811;;;;;;;;;;;;;
1813;;;;;;;;;;;;;
1815;;;;;;;;;;;;;
1817;;;;;;;;;;;;;
1819;;;;;;;;;;;;;
1821;;;;;;;;;;;;;
1823;;;;;;;;;;;;;
1825;;;;;;;;;;;;;
1827;;;;;;;;;;;;;
1829;;;;;;;;;;;;;
1831;;;;;;;;;;;;;
1833;;;;;;;;;;;;;
1835;;;;;;;;;;;;;
1837;;;;;;;;;;;;;
1839;;;;;;;;;;;;;
1841;;;;;;;;;;;;;
1843;;;;;;;;;;;;;
1845;;;;;;;;;;;;;
1847;;;;;;;;;;;;;
1849;;;;;;;;;;;;;
1851;;;;;;;;;;;;;
1853;;;;;;;;;;;;;
1855;;;;;;;;;;;;;
1857;;;;;;;;;;;;;
1859;;;;;;;;;;;;;
1861;;;;;;;;;;;;;
1863;;;;;;;;;;;;;
1865;;;;;;;;;;;;;
1867;;;;;;;;;;;;;
1869;;;;;;;;;;;;;
1871;;;;;;;;;;;;;
1873;;;;;;;;;;;;;
1875;;;;;;;;;;;;;
1877;;;;;;;;;;;;;
1879;;;;;;;;;;;;;
1881;;;;;;;;;;;;;
1883;;;;;;;;;;;;;
1885;;;;;;;;;;;;;
1887;;;;;;;;;;;;;
1889;;;;;;;;;;;;;
1891;;;;;;;;;;;;;
1893;;;;;;;;;;;;;
1895;;;;;;;;;;;;;
1897;;;;;;;;;;;;;
1899;;;;;;;;;;;;;
1901;;;;;;;;;;;;;
1903;;;;;;;;;;;;;
1905;;;;;;;;;;;;;
1907;;;;;;;;;;;;;
1909;;;;;;;;;;;;;
1911;;;;;;;;;;;;;
1913;;;;;;;;;;;;;
1915;;;;;;;;;;;;;
1917;;;;;;;;;;;;;
1919;;;;;;;;;;;;;
1921;;;;;;;;;;;;;
1923;;;;;;;;;;;;;
1925;;;;;;;;;;;;;
1927;;;;;;;;;;;;;
1929;;;;;;;;;;;;;
1931;;;;;;;;;;;;;
1933;;;;;;;;;;;;;
1935;;;;;;;;;;;;;
1937;;;;;;;;;;;;;
1939;;;;;;;;;;;;;
1941;;;;;;;;;;;;;
1943;;;;;;;;;;;;;
1945;;;;;;;;;;;;;
1947;;;;;;;;;;;;;
1949;;;;;;;;;;;;;
1951;;;;;;;;;;;;;
1953;;;;;;;;;;;;;
1955;;;;;;;;;;;;;
1957;;;;;;;;;;;;;
1959;;;;;;;;;;;;;
1961;;;;;;;;;;;;;
1963;;;;;;;;;;;;;
1965;;;;;;;;;;;;;
1967;;;;;;;;;;;;;
1969;;;;;;;;;;;;;
1971;;;;;;;;;;;;;
1973;;;;;;;;;;;;;
1975;;;;;;;;;;;;;
1977;;;;;;;;;;;;;
1979;;;;;;;;;;;;;
1981;;;;;;;;;;;;;
1983;;;;;;;;;;;;;
1985;;;;;;;;;;;;;
1987;;;;;;;;;;;;;
1989;;;;;;;;;;;;;
1991;;;;;;;;;;;;;
1993;;;;;;;;;;;;;
1995;;;;;;;;;;;;;
1997;;;;;;;;;;;;;
1999;;;;;;;;;;;;;
2001;;;;;;;;;;;;;
2003;;;;;;;;;;;;;
2005;;;;;;;;;;;;;
2007;;;;;;;;;;;;;
2009;;;;;;;;;;;;;
2011;;;;;;;;;;;;;
2013;;;;;;;;;;;;;
2015;;;;;;;;;;;;;
2017;;;;;;;;;;;;;
2019;;;;;;;;;;;;;
2021;;;;;;;;;;;;;
2023;;;;;;;;;;;;;
2025;;;;;;;;;;;;;
2027;;;;;;;;;;;;;
2029;;;;;;;;;;;;;
2031;;;;;;;;;;;;;
2033;;;;;;;;;;;;;
2035;;;;;;;;;;;;;
2037;;;;;;;;;;;;;
2039;;;;;;;;;;;;;
2041;;;;;;;;;;;;;
2043;;;;;;;;;;;;;
2045;;;;;;;;;;;;;
2047;;;;;;;;;;;;;
2049;;;;;;;;;;;;;
2051;;;;;;;;;;;;;
2053;;;;;;;;;;;;;
2055;;;;;;;;;;;;;
2057;;;;;;;;;;;;;
2059;;;;;;;;;;;;;
2061;;;;;;;;;;;;;
2063;;;;;;;;;;;;;
2065;;;;;;;;;;;;;
2067;;;;;;;;;;;;;
2069;;;;;;;;;;;;;
2071;;;;;;;;;;;;;
2073;;;;;;;;;;;;;
2075;;;;;;;;;;;;;
2077;;;;;;;;;;;;;
2079;;;;;;;;;;;;;
2081;;;;;;;;;;;;;
2083;;;;;;;;;;;;;
2085;;;;;;;;;;;;;
2087;;;;;;;;;;;;;
2089;;;;;;;;;;;;;
2091;;;;;;;;;;;;;
2093;;;;;;;;;;;;;
2095;;;;;;;;;;;;;
2097;;;;;;;;;;;;;
2099;;;;;;;;;;;;;
2101;;;;;;;;;;;;;
2103;;;;;;;;;;;;;
2105;;;;;;;;;;;;;
2107;;;;;;;;;;;;;
2109;;;;;;;;;;;;;
2111;;;;;;;;;;;;;
2113;;;;;;;;;;;;;
2115;;;;;;;;;;;;;
2117;;;;;;;;;;;;;
2119;;;;;;;;;;;;;
2121;;;;;;;;;;;;;
2123;;;;;;;;;;;;;
2125;;;;;;;;;;;;;
2127;;;;;;;;;;;;;
2129;;;;;;;;;;;;;
2131;;;;;;;;;;;;;
2133;;;;;;;;;;;;;
2135;;;;;;;;;;;;;
2137;;;;;;;;;;;;;
2139;;;;;;;;;;;;;
2141;;;;;;;;;;;;;
2143;;;;;;;;;;;;;
2145;;;;;;;;;;;;;
2147;;;;;;;;;;;;;
2149;;;;;;;;;;;;;
2151;;;;;;;;;;;;;
2153;;;;;;;;;;;;;
2155;;;;;;;;;;;;;
2157;;;;;;;;;;;;;
2159;;;;;;;;;;;;;
2161;;;;;;;;;;;;;
2163;;;;;;;;;;;;;
2165;;;;;;;;;;;;;
2167;;;;;;;;;;;;;
2169;;;;;;;;;;;;;
2171;;;;;;;;;;;;;
2173;;;;;;;;;;;;;
2175;;;;;;;;;;;;;
2177;;;;;;;;;;;;;
2179;;;;;;;;;;;;;
2181;;;;;;;;;;;;;
2183;;;;;;;;;;;;;
2185;;;;;;;;;;;;;
2187;;;;;;;;;;;;;
2189;;;;;;;;;;;;;
2191;;;;;;;;;;;;;
2193;;;;;;;;;;;;;
2195;;;;;;;;;;;;;
2197;;;;;;;;;;;;;
2199;;;;;;;;;;;;;
2201;;;;;;;;;;;;;
2203;;;;;;;;;;;;;
2205;;;;;;;;;;;;;
2207;;;;;;;;;;;;;
2209;;;;;;;;;;;;;
2211;;;;;;;;;;;;;
2213;;;;;;;;;;;;;
2215;;;;;;;;;;;;;
2217;;;;;;;;;;;;;
2219;;;;;;;;;;;;;
2221;;;;;;;;;;;;;
2223;;;;;;;;;;;;;
2225;;;;;;;;;;;;;
2227;;;;;;;;;;;;;
2229;;;;;;;;;;;;;
2231;;;;;;;;;;;;;
2233;;;;;;;;;;;;;
2235;;;;;;;;;;;;;
2237;;;;;;;;;;;;;
2239;;;;;;;;;;;;;
2241;;;;;;;;;;;;;
2243;;;;;;;;;;;;;
2245;;;;;;;;;;;;;
2247;;;;;;;;;;;;;
2249;;;;;;;;;;;;;
2251;;;;;;;;;;;;;
2253;;;;;;;;;;;;;
2255;;;;;;;;;;;;;
2257;;;;;;;;;;;;;
2259;;;;;;;;;;;;;
2261;;;;;;;;;;;;;
2263;;;;;;;;;;;;;
2265;;;;;;;;;;;;;
2267;;;;;;;;;;;;;
2269;;;;;;;;;;;;;
2271;;;;;;;;;;;;;
2273;;;;;;;;;;;;;
2275;;;;;;;;;;;;;
2277;;;;;;;;;;;;;
2279;;;;;;;;;;;;;
2281;;;;;;;;;;;;;
2283;;;;;;;;;;;;;
2285;;;;;;;;;;;;;
2287;;;;;;;;;;;;;
2289;;;;;;;;;;;;;
2291;;;;;;;;;;;;;
2293;;;;;;;;;;;;;
2295;;;;;;;;;;;;;
2297;;;;;;;;;;;;;
2299;;;;;;;;;;;;;
2301;;;;;;;;;;;;;
2303;;;;;;;;;;;;;
2305;;;;;;;;;;;;;
2307;;;;;;;;;;;;;
2309;;;;;;;;;;;;;
2311;;;;;;;;;;;;;
2313;;;;;;;;;;;;;
2315;;;;;;;;;;;;;
2317;;;;;;;;;;;;;
2319;;;;;;;;;;;;;
2321;;;;;;;;;;;;;
2323;;;;;;;;;;;;;
2325;;;;;;;;;;;;;
2327;;;;;;;;;;;;;
2329;;;;;;;;;;;;;
2331;;;;;;;;;;;;;
2333;;;;;;;;;;;;;
2335;;;;;;;;;;;;;
2337;;;;;;;;;;;;;
2339;;;;;;;;;;;;;
2341;;;;;;;;;;;;;
2343;;;;;;;;;;;;;
2345;;;;;;;;;;;;;
2347;;;;;;;;;;;;;
2349;;;;;;;;;;;;;
2351;;;;;;;;;;;;;
2353;;;;;;;;;;;;;
2355;;;;;;;;;;;;;
2357;;;;;;;;;;;;;
2359;;;;;;;;;;;;;
2361;;;;;;;;;;;;;
2363;;;;;;;;;;;;;
2365;;;;;;;;;;;;;
2367;;;;;;;;;;;;;
2369;;;;;;;;;;;;;
2371;;;;;;;;;;;;;
2373;;;;;;;;;;;;;
2375;;;;;;;;;;;;;
2377;;;;;;;;;;;;;
2379;;;;;;;;;;;;;
2381;;;;;;;;;;;;;
2383;;;;;;;;;;;;;
2385;;;;;;;;;;;;;
2387;;;;;;;;;;;;;
2389;;;;;;;;;;;;;
2391;;;;;;;;;;;;;
2393;;;;;;;;;;;;;
2395;;;;;;;;;;;;;
2397;;;;;;;;;;;;;
2399;;;;;;;;;;;;;
2401;;;;;;;;;;;;;
2403;;;;;;;;;;;;;
2405;;;;;;;;;;;;;
2407;;;;;;;;;;;;;
2409;;;;;;;;;;;;;
2411;;;;;;;;;;;;;
2413;;;;;;;;;;;;;
2415;;;;;;;;;;;;;
2417;;;;;;;;;;;;;
2419;;;;;;;;;;;;;
2421;;;;;;;;;;;;;
2423;;;;;;;;;;;;;
2425;;;;;;;;;;;;;
2427;;;;;;;;;;;;;
2429;;;;;;;;;;;;;
2431;;;;;;;;;;;;;
2433;;;;;;;;;;;;;
2435;;;;;;;;;;;;;
2437;;;;;;;;;;;;;
2439;;;;;;;;;;;;;
2441;;;;;;;;;;;;;
2443;;;;;;;;;;;;;
2445;;;;;;;;;;;;;
2447;;;;;;;;;;;;;
2449;;;;;;;;;;;;;
2451;;;;;;;;;;;;;
2453;;;;;;;;;;;;;
2455;;;;;;;;;;;;;
2457;;;;;;;;;;;;;
2459;;;;;;;;;;;;;
2461;;;;;;;;;;;;;
2463;;;;;;;;;;;;;
2465;;;;;;;;;;;;;
2467;;;;;;;;;;;;;
2469;;;;;;;;;;;;;
2471;;;;;;;;;;;;;
2473;;;;;;;;;;;;;
2475;;;;;;;;;;;;;
2477;;;;;;;;;;;;;
2479;;;;;;;;;;;;;
2481;;;;;;;;;;;;;
2483;;;;;;;;;;;;;
2485;;;;;;;;;;;;;
2487;;;;;;;;;;;;;
2489;;;;;;;;;;;;;
2491;;;;;;;;;;;;;
2493;;;;;;;;;;;;;
2495;;;;;;;;;;;;;
2497;;;;;;;;;;;;;
2499;;;;;;;;;;;;;
2501;;;;;;;;;;;;;
2503;;;;;;;;;;;;;
2505;;;;;;;;;;;;;
2507;;;;;;;;;;;;;
2509;;;;;;;;;;;;;
2511;;;;;;;;;;;;;
2513;;;;;;;;;;;;;
2515;;;;;;;;;;;;;
2517;;;;;;;;;;;;;
2519;;;;;;;;;;;;;
2521;;;;;;;;;;;;;
2523;;;;;;;;;;;;;
2525;;;;;;;;;;;;;
2527;;;;;;;;;;;;;
2529;;;;;;;;;;;;;
2531;;;;;;;;;;;;;
2533;;;;;;;;;;;;;
2535;;;;;;;;;;;;;
2536;;;;;;;;;;;;;