File: carbon_superP/O2_2000rpm.txt
Index;Column 2 (V);Column 3 (V);Column 4 (V);Column 5 (V);Column 6 (V/s);Column 7 (V);Time (s);Potential applied (V);WE(1).Current (A);WE(1).Potential (V);Scan;Column 13 (RPM);ω (rad/s)
1;0;0.01;-1;-0.01;0.01;-0.00244;18417.8;-0.0146484;6.00586e-07;-0.0143616;3;2000;209.44
3;;;;;;;18418.3;-0.01953125;4.4342e-07;-0.0192169;3;;
5;;;;;;;18418.8;-0.0244141;2.80151e-07;-0.0240936;3;;
7;;;;;;;18419.3;-0.0292969;1.33667e-07;-0.0290009;3;;
9;;;;;;;18419.8;-0.0341797;-4.88281e-09;-0.0338562;3;;
11;;;;;;;18420.3;-0.0390625;-1.16577e-07;-0.0387848;3;;
13;;;;;;;18420.8;-0.0439453;-2.89001e-07;-0.0435669;3;;
15;;;;;;;18421.3;-0.0488281;-3.9093e-07;-0.0484314;3;;
17;;;;;;;18421.8;-0.0537109;-5.18188e-07;-0.0534058;3;;
19;;;;;;;18422.2;-0.05859375;-6.6803e-07;-0.0583191;3;;
21;;;;;;;18422.7;-0.0634766;-8.23059e-07;-0.0632629;3;;
23;;;;;;;18423.2;-0.0683594;-9.57031e-07;-0.0679626;3;;
25;;;;;;;18423.7;-0.0732422;-1.11481e-06;-0.0728455;3;;
27;;;;;;;18424.2;-0.078125;-1.32507e-06;-0.0776062;3;;
29;;;;;;;18424.7;-0.0830078;-1.51123e-06;-0.0823364;3;;
31;;;;;;;18425.2;-0.0878906;-1.74988e-06;-0.0874023;3;;
33;;;;;;;18425.7;-0.0927734;-2.01843e-06;-0.0921936;3;;
35;;;;;;;18426.1;-0.09765625;-2.3114e-06;-0.0970764;3;;
37;;;;;;;18426.6;-0.102539;-2.61139e-06;-0.101898;3;;
39;;;;;;;18427.1;-0.107422;-2.96814e-06;-0.106659;3;;
41;;;;;;;18427.6;-0.112305;-3.41064e-06;-0.111938;3;;
43;;;;;;;18428.1;-0.1171875;-3.87268e-06;-0.116791;3;;
45;;;;;;;18428.6;-0.12207;-4.39148e-06;-0.121643;3;;
47;;;;;;;18429.1;-0.126953;-4.99268e-06;-0.126556;3;;
49;;;;;;;18429.6;-0.131836;-5.66406e-06;-0.131348;3;;
51;;;;;;;18430.1;-0.136719;-6.45447e-06;-0.1362;3;;
53;;;;;;;18430.5;-0.141602;-7.36084e-06;-0.141113;3;;
55;;;;;;;18431;-0.146484;-8.36487e-06;-0.145996;3;;
57;;;;;;;18431.5;-0.151367;-9.50623e-06;-0.150909;3;;
59;;;;;;;18432;-0.15625;-1.08246e-05;-0.155701;3;;
61;;;;;;;18432.5;-0.161133;-1.22803e-05;-0.160553;3;;
63;;;;;;;18433;-0.166016;-1.39191e-05;-0.165375;3;;
65;;;;;;;18433.5;-0.170898;-1.57928e-05;-0.170288;3;;
67;;;;;;;18434;-0.175781;-1.79718e-05;-0.17514;3;;
69;;;;;;;18434.4;-0.180664;-2.03186e-05;-0.179993;3;;
71;;;;;;;18434.9;-0.185547;-2.30377e-05;-0.184814;3;;
73;;;;;;;18435.4;-0.19043;-2.61627e-05;-0.189545;3;;
75;;;;;;;18435.9;-0.1953125;-2.96143e-05;-0.194519;3;;
77;;;;;;;18436.4;-0.200195;-3.34839e-05;-0.199646;3;;
79;;;;;;;18436.9;-0.205078;-3.80066e-05;-0.204498;3;;
81;;;;;;;18437.4;-0.209961;-4.30573e-05;-0.209351;3;;
83;;;;;;;18437.9;-0.214844;-4.87061e-05;-0.214203;3;;
85;;;;;;;18438.4;-0.219727;-5.51453e-05;-0.219116;3;;
87;;;;;;;18438.8;-0.224609;-6.2561e-05;-0.223969;3;;
89;;;;;;;18439.3;-0.229492;-7.07397e-05;-0.228821;3;;
91;;;;;;;18439.8;-0.234375;-8.01086e-05;-0.233734;3;;
93;;;;;;;18440.3;-0.239258;-9.07593e-05;-0.238586;3;;
95;;;;;;;18440.8;-0.244141;-0.000102692;-0.243439;3;;
97;;;;;;;18441.3;-0.249023;-0.000115967;-0.248291;3;;
99;;;;;;;18441.8;-0.253906;-0.000131042;-0.253143;3;;
101;;;;;;;18442.3;-0.258789;-0.00014798;-0.258057;3;;
103;;;;;;;18442.7;-0.263672;-0.000166534;-0.262939;3;;
105;;;;;;;18443.2;-0.268555;-0.000186981;-0.267731;3;;
107;;;;;;;18443.7;-0.2734375;-0.00020993;-0.272552;3;;
109;;;;;;;18444.2;-0.27832;-0.000234772;-0.277374;3;;
111;;;;;;;18444.7;-0.283203;-0.000261292;-0.282196;3;;
113;;;;;;;18445.2;-0.288086;-0.000290344;-0.287048;3;;
115;;;;;;;18445.7;-0.292969;-0.000321869;-0.292267;3;;
117;;;;;;;18446.2;-0.297852;-0.000354645;-0.297089;3;;
119;;;;;;;18446.7;-0.302734;-0.000389038;-0.301971;3;;
121;;;;;;;18447.1;-0.307617;-0.000425873;-0.306824;3;;
123;;;;;;;18447.6;-0.3125;-0.000463928;-0.311707;3;;
125;;;;;;;18448.1;-0.317383;-0.000502014;-0.316559;3;;
127;;;;;;;18448.6;-0.322266;-0.000541992;-0.321503;3;;
129;;;;;;;18449.1;-0.327148;-0.000583191;-0.326385;3;;
131;;;;;;;18449.6;-0.332031;-0.000623779;-0.331268;3;;
133;;;;;;;18450.1;-0.336914;-0.000664368;-0.33609;3;;
135;;;;;;;18450.6;-0.341797;-0.000705872;-0.341003;3;;
137;;;;;;;18451;-0.34668;-0.000746765;-0.345886;3;;
139;;;;;;;18451.5;-0.3515625;-0.000785828;-0.350739;3;;
141;;;;;;;18452;-0.356445;-0.000824585;-0.35556;3;;
143;;;;;;;18452.5;-0.361328;-0.000863037;-0.360413;3;;
145;;;;;;;18453;-0.366211;-0.000899353;-0.365326;3;;
147;;;;;;;18453.5;-0.371094;-0.000933533;-0.370178;3;;
149;;;;;;;18454;-0.375977;-0.000967407;-0.375;3;;
151;;;;;;;18454.5;-0.380859;-0.000999146;-0.379944;3;;
153;;;;;;;18455;-0.385742;-0.00102783;-0.384827;3;;
155;;;;;;;18455.4;-0.390625;-0.0010556;-0.38974;3;;
157;;;;;;;18455.9;-0.395508;-0.00108215;-0.394623;3;;
159;;;;;;;18456.4;-0.400391;-0.00110596;-0.399414;3;;
161;;;;;;;18456.9;-0.405273;-0.00112762;-0.404327;3;;
163;;;;;;;18457.4;-0.410156;-0.00114868;-0.409119;3;;
165;;;;;;;18457.9;-0.415039;-0.00116791;-0.4140625;3;;
167;;;;;;;18458.4;-0.419922;-0.00118469;-0.418945;3;;
169;;;;;;;18458.9;-0.424805;-0.00120117;-0.423798;3;;
171;;;;;;;18459.3;-0.4296875;-0.00121704;-0.428711;3;;
173;;;;;;;18459.8;-0.43457;-0.00123047;-0.433502;3;;
175;;;;;;;18460.3;-0.439453;-0.00124298;-0.438385;3;;
177;;;;;;;18460.8;-0.444336;-0.00125488;-0.443329;3;;
179;;;;;;;18461.3;-0.449219;-0.0012677;-0.448151;3;;
181;;;;;;;18461.8;-0.454102;-0.00127747;-0.453033;3;;
183;;;;;;;18462.3;-0.458984;-0.00128723;-0.457886;3;;
185;;;;;;;18462.8;-0.463867;-0.001297;-0.462799;3;;
187;;;;;;;18463.3;-0.46875;-0.00130493;-0.467682;3;;
189;;;;;;;18463.7;-0.473633;-0.00131226;-0.472504;3;;
191;;;;;;;18464.2;-0.478516;-0.00132019;-0.477417;3;;
193;;;;;;;18464.7;-0.483398;-0.00132843;-0.482269;3;;
195;;;;;;;18465.2;-0.488281;-0.00133301;-0.487091;3;;
197;;;;;;;18465.7;-0.493164;-0.00133942;-0.492004;3;;
199;;;;;;;18466.2;-0.498047;-0.00134552;-0.496857;3;;
201;;;;;;;18466.7;-0.50293;-0.00135071;-0.501801;3;;
203;;;;;;;18467.2;-0.5078125;-0.00135468;-0.506683;3;;
205;;;;;;;18467.7;-0.512695;-0.00136017;-0.511536;3;;
207;;;;;;;18468.1;-0.517578;-0.00136566;-0.516327;3;;
209;;;;;;;18468.6;-0.522461;-0.00136871;-0.521271;3;;
211;;;;;;;18469.1;-0.527344;-0.00137177;-0.526154;3;;
213;;;;;;;18469.6;-0.532227;-0.00137665;-0.531036;3;;
215;;;;;;;18470.1;-0.537109;-0.00138123;-0.535889;3;;
217;;;;;;;18470.6;-0.541992;-0.00138275;-0.540741;3;;
219;;;;;;;18471.1;-0.546875;-0.00138733;-0.545654;3;;
221;;;;;;;18471.6;-0.551758;-0.00138916;-0.550568;3;;
223;;;;;;;18472;-0.556641;-0.0013913;-0.555389;3;;
225;;;;;;;18472.5;-0.561523;-0.00139374;-0.560242;3;;
227;;;;;;;18473;-0.566406;-0.00139801;-0.565186;3;;
229;;;;;;;18473.5;-0.571289;-0.00139923;-0.570068;3;;
231;;;;;;;18474;-0.576172;-0.00140472;-0.574921;3;;
233;;;;;;;18474.5;-0.581055;-0.00140747;-0.579803;3;;
235;;;;;;;18475;-0.5859375;-0.00140778;-0.584656;3;;
237;;;;;;;18475.5;-0.59082;-0.00140808;-0.589478;3;;
239;;;;;;;18476;-0.595703;-0.001409;-0.594391;3;;
241;;;;;;;18476.4;-0.600586;-0.00141296;-0.599243;3;;
243;;;;;;;18476.9;-0.605469;-0.00141113;-0.604156;3;;
245;;;;;;;18477.4;-0.610352;-0.00141266;-0.609009;3;;
247;;;;;;;18477.9;-0.615234;-0.0014151;-0.613892;3;;
249;;;;;;;18478.4;-0.620117;-0.0014151;-0.618805;3;;
251;;;;;;;18478.9;-0.625;-0.00141541;-0.623688;3;;
253;;;;;;;18479.4;-0.629883;-0.00141632;-0.62854;3;;
255;;;;;;;18479.9;-0.634766;-0.00141785;-0.633392;3;;
257;;;;;;;18480.3;-0.639648;-0.00141785;-0.638275;3;;
259;;;;;;;18480.8;-0.644531;-0.00141754;-0.643188;3;;
261;;;;;;;18481.3;-0.649414;-0.00141663;-0.648041;3;;
263;;;;;;;18481.8;-0.654297;-0.00141876;-0.652924;3;;
265;;;;;;;18482.3;-0.65918;-0.00141663;-0.657806;3;;
267;;;;;;;18482.8;-0.6640625;-0.00141571;-0.662689;3;;
269;;;;;;;18483.3;-0.668945;-0.00141632;-0.667511;3;;
271;;;;;;;18483.8;-0.673828;-0.00141296;-0.672424;3;;
273;;;;;;;18484.3;-0.678711;-0.00141266;-0.677368;3;;
275;;;;;;;18484.7;-0.683594;-0.00141144;-0.682251;3;;
277;;;;;;;18485.2;-0.688477;-0.00141235;-0.687042;3;;
279;;;;;;;18485.7;-0.693359;-0.0014093;-0.691986;3;;
281;;;;;;;18486.2;-0.698242;-0.00140808;-0.696838;3;;
283;;;;;;;18486.7;-0.703125;-0.00140747;-0.701752;3;;
285;;;;;;;18487.2;-0.708008;-0.00140625;-0.706604;3;;
287;;;;;;;18487.7;-0.712891;-0.0014035;-0.711487;3;;
289;;;;;;;18488.2;-0.717773;-0.00140259;-0.716339;3;;
291;;;;;;;18488.6;-0.722656;-0.00140259;-0.721283;3;;
293;;;;;;;18489.1;-0.727539;-0.00139984;-0.726105;3;;
295;;;;;;;18489.6;-0.732422;-0.00139801;-0.731079;3;;
297;;;;;;;18490.1;-0.737305;-0.00139648;-0.735901;3;;
299;;;;;;;18490.6;-0.7421875;-0.00139435;-0.740753;3;;
301;;;;;;;18491.1;-0.74707;-0.00139282;-0.745636;3;;
303;;;;;;;18491.6;-0.751953;-0.00139038;-0.750427;3;;
305;;;;;;;18492.1;-0.756836;-0.00138885;-0.756226;3;;
307;;;;;;;18492.6;-0.761719;-0.0013858;-0.760803;3;;
309;;;;;;;18493;-0.766602;-0.00138702;-0.766296;3;;
311;;;;;;;18493.5;-0.771484;-0.00138428;-0.770569;3;;
313;;;;;;;18494;-0.776367;-0.00138306;-0.775757;3;;
315;;;;;;;18494.5;-0.78125;-0.00137848;-0.780334;3;;
317;;;;;;;18495;-0.786133;-0.0013797;-0.784912;3;;
319;;;;;;;18495.5;-0.791016;-0.00137787;-0.79071;3;;
321;;;;;;;18496;-0.795898;-0.00137573;-0.794678;3;;
323;;;;;;;18496.5;-0.800781;-0.00137421;-0.799866;3;;
325;;;;;;;18496.9;-0.805664;-0.0013736;-0.805054;3;;
327;;;;;;;18497.4;-0.810547;-0.00137238;-0.809937;3;;
329;;;;;;;18497.9;-0.81543;-0.00137207;-0.814819;3;;
331;;;;;;;18498.4;-0.8203125;-0.00137207;-0.819397;3;;
333;;;;;;;18498.9;-0.825195;-0.00137177;-0.82428;3;;
335;;;;;;;18499.4;-0.830078;-0.00137238;-0.829163;3;;
337;;;;;;;18499.9;-0.834961;-0.00137054;-0.83374;3;;
339;;;;;;;18500.4;-0.839844;-0.00137299;-0.838928;3;;
341;;;;;;;18500.9;-0.844727;-0.00137207;-0.843811;3;;
343;;;;;;;18501.3;-0.849609;-0.00137268;-0.848694;3;;
345;;;;;;;18501.8;-0.854492;-0.00137512;-0.853577;3;;
347;;;;;;;18502.3;-0.859375;-0.00137482;-0.858459;3;;
349;;;;;;;18502.8;-0.864258;-0.00137177;-0.863647;3;;
351;;;;;;;18503.3;-0.869141;-0.00137421;-0.868225;3;;
353;;;;;;;18503.8;-0.874023;-0.00137177;-0.873718;3;;
355;;;;;;;18504.3;-0.878906;-0.00137573;-0.878296;3;;
357;;;;;;;18504.8;-0.883789;-0.00137787;-0.882874;3;;
359;;;;;;;18505.2;-0.888672;-0.00137817;-0.887756;3;;
361;;;;;;;18505.7;-0.893555;-0.00138153;-0.892944;3;;
363;;;;;;;18506.2;-0.8984375;-0.00138092;-0.897827;3;;
365;;;;;;;18506.7;-0.90332;-0.00138275;-0.9021;3;;
367;;;;;;;18507.2;-0.908203;-0.00138519;-0.907593;3;;
369;;;;;;;18507.7;-0.913086;-0.00138641;-0.911865;3;;
371;;;;;;;18508.2;-0.917969;-0.00138611;-0.917358;3;;
373;;;;;;;18508.7;-0.922852;-0.00138794;-0.922241;3;;
375;;;;;;;18509.2;-0.927734;-0.00139008;-0.926819;3;;
377;;;;;;;18509.6;-0.932617;-0.0013913;-0.931702;3;;
379;;;;;;;18510.1;-0.9375;-0.00139099;-0.937195;3;;
381;;;;;;;18510.6;-0.942383;-0.00139374;-0.941467;3;;
383;;;;;;;18511.1;-0.947266;-0.00139343;-0.94696;3;;
385;;;;;;;18511.6;-0.952148;-0.0013913;-0.951538;3;;
387;;;;;;;18512.1;-0.957031;-0.00139313;-0.955811;3;;
389;;;;;;;18512.6;-0.961914;-0.00139343;-0.961304;3;;
391;;;;;;;18513.1;-0.966797;-0.00139374;-0.966187;3;;
393;;;;;;;18513.5;-0.97168;-0.00139496;-0.971375;3;;
395;;;;;;;18514;-0.9765625;-0.0013974;-0.975952;3;;
397;;;;;;;18514.5;-0.981445;-0.00139954;-0.98053;3;;
399;;;;;;;18515;-0.986328;-0.00139954;-0.985718;3;;
401;;;;;;;18515.5;-0.991211;-0.00140289;-0.990295;3;;
403;;;;;;;18516;-0.996094;-0.0014032;-0.995178;3;;
405;;;;;;;18516.5;-1.00098;-0.00140289;-1.00006;3;;
407;;;;;;;18517;-0.996094;-0.00139374;-0.995483;3;;
409;;;;;;;18517.5;-0.991211;-0.00138641;-0.990295;3;;
411;;;;;;;18517.9;-0.986328;-0.00137573;-0.985413;3;;
413;;;;;;;18518.4;-0.981445;-0.00137299;-0.98053;3;;
415;;;;;;;18518.9;-0.9765625;-0.00136627;-0.975647;3;;
417;;;;;;;18519.4;-0.97168;-0.00136139;-0.971375;3;;
419;;;;;;;18519.9;-0.966797;-0.00135406;-0.965881;3;;
421;;;;;;;18520.4;-0.961914;-0.00135162;-0.961609;3;;
423;;;;;;;18520.9;-0.957031;-0.00134857;-0.956116;3;;
425;;;;;;;18521.4;-0.952148;-0.00134369;-0.951538;3;;
427;;;;;;;18521.8;-0.947266;-0.00133942;-0.94635;3;;
429;;;;;;;18522.3;-0.942383;-0.0013382;-0.941772;3;;
431;;;;;;;18522.8;-0.9375;-0.00133514;-0.936584;3;;
433;;;;;;;18523.3;-0.932617;-0.00133057;-0.931396;3;;
435;;;;;;;18523.8;-0.927734;-0.00132782;-0.927124;3;;
437;;;;;;;18524.3;-0.922852;-0.001328125;-0.921936;3;;
439;;;;;;;18524.8;-0.917969;-0.00132446;-0.917053;3;;
441;;;;;;;18525.3;-0.913086;-0.00132355;-0.91217;3;;
443;;;;;;;18525.8;-0.908203;-0.00131958;-0.907288;3;;
445;;;;;;;18526.2;-0.90332;-0.00131989;-0.902405;3;;
447;;;;;;;18526.7;-0.8984375;-0.00131531;-0.897522;3;;
449;;;;;;;18527.2;-0.893555;-0.00131287;-0.892334;3;;
451;;;;;;;18527.7;-0.888672;-0.00131317;-0.888367;3;;
453;;;;;;;18528.2;-0.883789;-0.00131012;-0.882874;3;;
455;;;;;;;18528.7;-0.878906;-0.00131073;-0.878601;3;;
457;;;;;;;18529.2;-0.874023;-0.0013092;-0.872803;3;;
459;;;;;;;18529.7;-0.869141;-0.00130707;-0.868225;3;;
461;;;;;;;18530.2;-0.864258;-0.00130859;-0.863342;3;;
463;;;;;;;18530.6;-0.859375;-0.00130524;-0.858459;3;;
465;;;;;;;18531.1;-0.854492;-0.00130768;-0.853577;3;;
467;;;;;;;18531.6;-0.849609;-0.00130615;-0.848999;3;;
469;;;;;;;18532.1;-0.844727;-0.00130463;-0.844421;3;;
471;;;;;;;18532.6;-0.839844;-0.00130829;-0.838623;3;;
473;;;;;;;18533.1;-0.834961;-0.00130798;-0.834351;3;;
475;;;;;;;18533.6;-0.830078;-0.00130829;-0.829468;3;;
477;;;;;;;18534.1;-0.825195;-0.00131104;-0.82428;3;;
479;;;;;;;18534.5;-0.8203125;-0.00130951;-0.819397;3;;
481;;;;;;;18535;-0.81543;-0.00131104;-0.814819;3;;
483;;;;;;;18535.5;-0.810547;-0.00131348;-0.809937;3;;
485;;;;;;;18536;-0.805664;-0.00131531;-0.804443;3;;
487;;;;;;;18536.5;-0.800781;-0.00131805;-0.800171;3;;
489;;;;;;;18537;-0.795898;-0.0013205;-0.795288;3;;
491;;;;;;;18537.5;-0.791016;-0.00132538;-0.7901;3;;
493;;;;;;;18538;-0.786133;-0.00132935;-0.785217;3;;
495;;;;;;;18538.5;-0.78125;-0.00132904;-0.780334;3;;
497;;;;;;;18538.9;-0.776367;-0.00133423;-0.775452;3;;
499;;;;;;;18539.4;-0.771484;-0.00133728;-0.770569;3;;
501;;;;;;;18539.9;-0.766602;-0.00134033;-0.765686;3;;
503;;;;;;;18540.4;-0.761719;-0.00134186;-0.761108;3;;
505;;;;;;;18540.9;-0.756836;-0.00134644;-0.75592;3;;
507;;;;;;;18541.4;-0.751953;-0.0013504;-0.751038;3;;
509;;;;;;;18541.9;-0.74707;-0.00135132;-0.745636;3;;
511;;;;;;;18542.4;-0.7421875;-0.00135468;-0.740753;3;;
513;;;;;;;18542.8;-0.737305;-0.00135895;-0.735901;3;;
515;;;;;;;18543.3;-0.732422;-0.00136169;-0.730988;3;;
517;;;;;;;18543.8;-0.727539;-0.00136322;-0.726166;3;;
519;;;;;;;18544.3;-0.722656;-0.00136871;-0.721222;3;;
521;;;;;;;18544.8;-0.717773;-0.0013739;-0.7164;3;;
523;;;;;;;18545.3;-0.712891;-0.00137482;-0.711517;3;;
525;;;;;;;18545.8;-0.708008;-0.00137695;-0.706665;3;;
527;;;;;;;18546.3;-0.703125;-0.00138062;-0.701721;3;;
529;;;;;;;18546.8;-0.698242;-0.00138275;-0.696869;3;;
531;;;;;;;18547.2;-0.693359;-0.00138702;-0.692017;3;;
533;;;;;;;18547.7;-0.688477;-0.00138672;-0.687073;3;;
535;;;;;;;18548.2;-0.683594;-0.00138885;-0.68222;3;;
537;;;;;;;18548.7;-0.678711;-0.00138947;-0.677307;3;;
539;;;;;;;18549.2;-0.673828;-0.00139221;-0.672424;3;;
541;;;;;;;18549.7;-0.668945;-0.00139313;-0.667572;3;;
543;;;;;;;18550.2;-0.6640625;-0.00139343;-0.662689;3;;
545;;;;;;;18550.7;-0.65918;-0.00139221;-0.657745;3;;
547;;;;;;;18551.1;-0.654297;-0.00139679;-0.652924;3;;
549;;;;;;;18551.6;-0.649414;-0.00139587;-0.648071;3;;
551;;;;;;;18552.1;-0.644531;-0.00139526;-0.643127;3;;
553;;;;;;;18552.6;-0.639648;-0.00139465;-0.638306;3;;
555;;;;;;;18553.1;-0.634766;-0.00139465;-0.633392;3;;
557;;;;;;;18553.6;-0.629883;-0.00139435;-0.62851;3;;
559;;;;;;;18554.1;-0.625;-0.00139313;-0.623657;3;;
561;;;;;;;18554.6;-0.620117;-0.00139313;-0.618774;3;;
563;;;;;;;18555.1;-0.615234;-0.00139282;-0.613922;3;;
565;;;;;;;18555.5;-0.610352;-0.00139099;-0.608978;3;;
567;;;;;;;18556;-0.605469;-0.00139038;-0.604126;3;;
569;;;;;;;18556.5;-0.600586;-0.00138824;-0.599243;3;;
571;;;;;;;18557;-0.595703;-0.00138855;-0.59433;3;;
573;;;;;;;18557.5;-0.59082;-0.0013855;-0.589508;3;;
575;;;;;;;18558;-0.5859375;-0.00138336;-0.584625;3;;
577;;;;;;;18558.5;-0.581055;-0.00138245;-0.579742;3;;
579;;;;;;;18559;-0.576172;-0.00137848;-0.57489;3;;
581;;;;;;;18559.4;-0.571289;-0.00137878;-0.570007;3;;
583;;;;;;;18559.9;-0.566406;-0.00137817;-0.565125;3;;
585;;;;;;;18560.4;-0.561523;-0.00137299;-0.560303;3;;
587;;;;;;;18560.9;-0.556641;-0.00137024;-0.55545;3;;
589;;;;;;;18561.4;-0.551758;-0.00136993;-0.550568;3;;
591;;;;;;;18561.9;-0.546875;-0.00136871;-0.545624;3;;
593;;;;;;;18562.4;-0.541992;-0.00136444;-0.540771;3;;
595;;;;;;;18562.9;-0.537109;-0.00136017;-0.535858;3;;
597;;;;;;;18563.4;-0.532227;-0.00135803;-0.531006;3;;
599;;;;;;;18563.8;-0.527344;-0.00135712;-0.526123;3;;
601;;;;;;;18564.3;-0.522461;-0.00135132;-0.52121;3;;
603;;;;;;;18564.8;-0.517578;-0.0013501;-0.516388;3;;
605;;;;;;;18565.3;-0.512695;-0.00134552;-0.511475;3;;
607;;;;;;;18565.8;-0.5078125;-0.00134003;-0.506653;3;;
609;;;;;;;18566.3;-0.50293;-0.00133606;-0.50177;3;;
611;;;;;;;18566.8;-0.498047;-0.00133179;-0.496918;3;;
613;;;;;;;18567.3;-0.493164;-0.00132721;-0.491974;3;;
615;;;;;;;18567.7;-0.488281;-0.00132019;-0.487183;3;;
617;;;;;;;18568.2;-0.483398;-0.0013147;-0.482269;3;;
619;;;;;;;18568.7;-0.478516;-0.00130859;-0.477417;3;;
621;;;;;;;18569.2;-0.473633;-0.00130005;-0.472443;3;;
623;;;;;;;18569.7;-0.46875;-0.00129303;-0.467651;3;;
625;;;;;;;18570.2;-0.463867;-0.0012854;-0.462799;3;;
627;;;;;;;18570.7;-0.458984;-0.00127533;-0.457916;3;;
629;;;;;;;18571.2;-0.454102;-0.00126465;-0.453064;3;;
631;;;;;;;18571.7;-0.449219;-0.00125488;-0.448181;3;;
633;;;;;;;18572.1;-0.444336;-0.0012439;-0.443329;3;;
635;;;;;;;18572.6;-0.439453;-0.00123016;-0.438416;3;;
637;;;;;;;18573.1;-0.43457;-0.00121735;-0.433533;3;;
639;;;;;;;18573.6;-0.4296875;-0.001203;-0.42868;3;;
641;;;;;;;18574.1;-0.424805;-0.00118652;-0.423798;3;;
643;;;;;;;18574.6;-0.419922;-0.00116974;-0.418945;3;;
645;;;;;;;18575.1;-0.415039;-0.00115234;-0.414001;3;;
647;;;;;;;18575.6;-0.410156;-0.0011322;-0.409149;3;;
649;;;;;;;18576;-0.405273;-0.00111084;-0.404327;3;;
651;;;;;;;18576.5;-0.400391;-0.00108917;-0.399445;3;;
653;;;;;;;18577;-0.395508;-0.00106537;-0.394562;3;;
655;;;;;;;18577.5;-0.390625;-0.00103973;-0.389709;3;;
657;;;;;;;18578;-0.385742;-0.00101379;-0.384796;3;;
659;;;;;;;18578.5;-0.380859;-0.000986938;-0.379974;3;;
661;;;;;;;18579;-0.375977;-0.000957336;-0.375061;3;;
663;;;;;;;18579.5;-0.371094;-0.000926514;-0.370148;3;;
665;;;;;;;18580;-0.366211;-0.000895691;-0.365356;3;;
667;;;;;;;18580.4;-0.361328;-0.000863647;-0.360474;3;;
669;;;;;;;18580.9;-0.356445;-0.000829468;-0.35556;3;;
671;;;;;;;18581.4;-0.3515625;-0.000795898;-0.350708;3;;
673;;;;;;;18581.9;-0.34668;-0.000761719;-0.345825;3;;
675;;;;;;;18582.4;-0.341797;-0.000725708;-0.340973;3;;
677;;;;;;;18582.9;-0.336914;-0.000689697;-0.336121;3;;
679;;;;;;;18583.4;-0.332031;-0.000654297;-0.331299;3;;
681;;;;;;;18583.9;-0.327148;-0.000618591;-0.326324;3;;
683;;;;;;;18584.3;-0.322266;-0.000582275;-0.321503;3;;
685;;;;;;;18584.8;-0.317383;-0.000546875;-0.31662;3;;
687;;;;;;;18585.3;-0.3125;-0.00051239;-0.311707;3;;
689;;;;;;;18585.8;-0.307617;-0.000477692;-0.306885;3;;
691;;;;;;;18586.3;-0.302734;-0.000443848;-0.302002;3;;
693;;;;;;;18586.8;-0.297852;-0.000411743;-0.29715;3;;
695;;;;;;;18587.3;-0.292969;-0.00038031;-0.292267;3;;
697;;;;;;;18587.8;-0.288086;-0.000349518;-0.287384;3;;
699;;;;;;;18588.3;-0.283203;-0.00032077;-0.282471;3;;
701;;;;;;;18588.7;-0.27832;-0.000293579;-0.277649;3;;
703;;;;;;;18589.2;-0.2734375;-0.000267334;-0.272797;3;;
705;;;;;;;18589.7;-0.268555;-0.000242676;-0.267914;3;;
707;;;;;;;18590.2;-0.263672;-0.000220062;-0.263031;3;;
709;;;;;;;18590.7;-0.258789;-0.00019873;-0.258179;3;;
711;;;;;;;18591.2;-0.253906;-0.00017868;-0.253265;3;;
713;;;;;;;18591.7;-0.249023;-0.000160522;-0.248413;3;;
715;;;;;;;18592.2;-0.244141;-0.000143951;-0.24353;3;;
717;;;;;;;18592.7;-0.239258;-0.000128448;-0.238678;3;;
719;;;;;;;18593.1;-0.234375;-0.000114441;-0.233765;3;;
721;;;;;;;18593.6;-0.229492;-0.000101959;-0.228882;3;;
723;;;;;;;18594.1;-0.224609;-9.05151e-05;-0.223999;3;;
725;;;;;;;18594.6;-0.219727;-8.01086e-05;-0.219177;3;;
727;;;;;;;18595.1;-0.214844;-7.09534e-05;-0.214233;3;;
729;;;;;;;18595.6;-0.209961;-6.27747e-05;-0.20932;3;;
731;;;;;;;18596.1;-0.205078;-5.52673e-05;-0.204498;3;;
733;;;;;;;18596.6;-0.200195;-4.86755e-05;-0.199677;3;;
735;;;;;;;18597;-0.1953125;-4.28772e-05;-0.194702;3;;
737;;;;;;;18597.5;-0.19043;-3.75977e-05;-0.18985;3;;
739;;;;;;;18598;-0.185547;-3.29132e-05;-0.185059;3;;
741;;;;;;;18598.5;-0.180664;-2.88025e-05;-0.180145;3;;
743;;;;;;;18599;-0.175781;-2.51617e-05;-0.175293;3;;
745;;;;;;;18599.5;-0.170898;-2.18719e-05;-0.17038;3;;
747;;;;;;;18600;-0.166016;-1.90002e-05;-0.165558;3;;
749;;;;;;;18600.5;-0.161133;-1.64886e-05;-0.160675;3;;
751;;;;;;;18601;-0.15625;-1.4267e-05;-0.155792;3;;
753;;;;;;;18601.4;-0.151367;-1.2265e-05;-0.15097;3;;
755;;;;;;;18601.9;-0.146484;-1.05774e-05;-0.146027;3;;
757;;;;;;;18602.4;-0.141602;-9.04236e-06;-0.141144;3;;
759;;;;;;;18602.9;-0.136719;-7.69348e-06;-0.136292;3;;
761;;;;;;;18603.4;-0.131836;-6.53687e-06;-0.131409;3;;
763;;;;;;;18603.9;-0.126953;-5.47791e-06;-0.126526;3;;
765;;;;;;;18604.4;-0.12207;-4.62341e-06;-0.121643;3;;
767;;;;;;;18604.9;-0.1171875;-3.80859e-06;-0.116791;3;;
769;;;;;;;18605.3;-0.112305;-3.10791e-06;-0.111877;3;;
771;;;;;;;18605.8;-0.107422;-2.48962e-06;-0.107056;3;;
773;;;;;;;18606.3;-0.102539;-1.99646e-06;-0.102173;3;;
775;;;;;;;18606.8;-0.09765625;-1.50421e-06;-0.0973206;3;;
777;;;;;;;18607.3;-0.0927734;-1.07971e-06;-0.0924988;3;;
779;;;;;;;18607.8;-0.0878906;-7.24487e-07;-0.0875854;3;;
781;;;;;;;18608.3;-0.0830078;-4.05884e-07;-0.0827026;3;;
783;;;;;;;18608.8;-0.078125;-9.82666e-08;-0.0780029;3;;
785;;;;;;;18609.3;-0.0732422;1.42212e-07;-0.0729065;3;;
787;;;;;;;18609.7;-0.0683594;3.27148e-07;-0.0681152;3;;
789;;;;;;;18610.2;-0.0634766;5.84106e-07;-0.0632629;3;;
791;;;;;;;18610.7;-0.05859375;7.66602e-07;-0.0584717;3;;
793;;;;;;;18611.2;-0.0537109;9.15222e-07;-0.0535583;3;;
795;;;;;;;18611.7;-0.0488281;1.06018e-06;-0.0484802;3;;
797;;;;;;;18612.2;-0.0439453;1.2381e-06;-0.0435455;3;;
799;;;;;;;18612.7;-0.0390625;1.3446e-06;-0.0387329;3;;
801;;;;;;;18613.2;-0.0341797;1.45874e-06;-0.0339752;3;;
803;;;;;;;18613.6;-0.0292969;1.60797e-06;-0.0288879;3;;
805;;;;;;;18614.1;-0.0244141;1.69922e-06;-0.024173;3;;
807;;;;;;;18614.6;-0.01953125;1.82465e-06;-0.0192688;3;;
809;;;;;;;18615.1;-0.0146484;1.90399e-06;-0.0144257;3;;
811;;;;;;;18615.6;-0.009765625;2.02393e-06;-0.00945129;3;;
813;;;;;;;18616.1;-0.00488281;2.1048e-06;-0.00447388;3;;
815;;;;;;;18616.6;0;2.16949e-06;0.000244141;3;;
817;;;;;;;18617.1;0.00488281;2.26166e-06;0.00511475;3;;
819;;;;;;;18617.6;0.009765625;2.34955e-06;0.0100281;3;;
821;;;;;;;18618;0.009765625;1.98608e-06;0.0100067;3;;
823;;;;;;;18618.5;0.00488281;1.55731e-06;0.0050415;3;;
825;;;;;;;18619;0;1.25153e-06;0.000219727;3;;
827;;;;;;;18619.5;-0.00488281;1.01837e-06;-0.00452881;3;;
829;;;;;;;18620;-0.009765625;8.01392e-07;-0.00942078;3;;
831;;;;;;;;;;;;;
833;;;;;;;;;;;;;
835;;;;;;;;;;;;;
837;;;;;;;;;;;;;
839;;;;;;;;;;;;;
841;;;;;;;;;;;;;
843;;;;;;;;;;;;;
845;;;;;;;;;;;;;
847;;;;;;;;;;;;;
849;;;;;;;;;;;;;
851;;;;;;;;;;;;;
853;;;;;;;;;;;;;
855;;;;;;;;;;;;;
857;;;;;;;;;;;;;
859;;;;;;;;;;;;;
861;;;;;;;;;;;;;
863;;;;;;;;;;;;;
865;;;;;;;;;;;;;
867;;;;;;;;;;;;;
869;;;;;;;;;;;;;
871;;;;;;;;;;;;;
873;;;;;;;;;;;;;
875;;;;;;;;;;;;;
877;;;;;;;;;;;;;
879;;;;;;;;;;;;;
881;;;;;;;;;;;;;
883;;;;;;;;;;;;;
885;;;;;;;;;;;;;
887;;;;;;;;;;;;;
889;;;;;;;;;;;;;
891;;;;;;;;;;;;;
893;;;;;;;;;;;;;
895;;;;;;;;;;;;;
897;;;;;;;;;;;;;
899;;;;;;;;;;;;;
901;;;;;;;;;;;;;
903;;;;;;;;;;;;;
905;;;;;;;;;;;;;
907;;;;;;;;;;;;;
909;;;;;;;;;;;;;
911;;;;;;;;;;;;;
913;;;;;;;;;;;;;
915;;;;;;;;;;;;;
917;;;;;;;;;;;;;
919;;;;;;;;;;;;;
921;;;;;;;;;;;;;
923;;;;;;;;;;;;;
925;;;;;;;;;;;;;
927;;;;;;;;;;;;;
929;;;;;;;;;;;;;
931;;;;;;;;;;;;;
933;;;;;;;;;;;;;
935;;;;;;;;;;;;;
937;;;;;;;;;;;;;
939;;;;;;;;;;;;;
941;;;;;;;;;;;;;
943;;;;;;;;;;;;;
945;;;;;;;;;;;;;
947;;;;;;;;;;;;;
949;;;;;;;;;;;;;
951;;;;;;;;;;;;;
953;;;;;;;;;;;;;
955;;;;;;;;;;;;;
957;;;;;;;;;;;;;
959;;;;;;;;;;;;;
961;;;;;;;;;;;;;
963;;;;;;;;;;;;;
965;;;;;;;;;;;;;
967;;;;;;;;;;;;;
969;;;;;;;;;;;;;
971;;;;;;;;;;;;;
973;;;;;;;;;;;;;
975;;;;;;;;;;;;;
977;;;;;;;;;;;;;
979;;;;;;;;;;;;;
981;;;;;;;;;;;;;
983;;;;;;;;;;;;;
985;;;;;;;;;;;;;
987;;;;;;;;;;;;;
989;;;;;;;;;;;;;
991;;;;;;;;;;;;;
993;;;;;;;;;;;;;
995;;;;;;;;;;;;;
997;;;;;;;;;;;;;
999;;;;;;;;;;;;;
1001;;;;;;;;;;;;;
1003;;;;;;;;;;;;;
1005;;;;;;;;;;;;;
1007;;;;;;;;;;;;;
1009;;;;;;;;;;;;;
1011;;;;;;;;;;;;;
1013;;;;;;;;;;;;;
1015;;;;;;;;;;;;;
1017;;;;;;;;;;;;;
1019;;;;;;;;;;;;;
1021;;;;;;;;;;;;;
1023;;;;;;;;;;;;;
1025;;;;;;;;;;;;;
1027;;;;;;;;;;;;;
1029;;;;;;;;;;;;;
1031;;;;;;;;;;;;;
1033;;;;;;;;;;;;;
1035;;;;;;;;;;;;;
1037;;;;;;;;;;;;;
1039;;;;;;;;;;;;;
1041;;;;;;;;;;;;;
1043;;;;;;;;;;;;;
1045;;;;;;;;;;;;;
1047;;;;;;;;;;;;;
1049;;;;;;;;;;;;;
1051;;;;;;;;;;;;;
1053;;;;;;;;;;;;;
1055;;;;;;;;;;;;;
1057;;;;;;;;;;;;;
1059;;;;;;;;;;;;;
1061;;;;;;;;;;;;;
1063;;;;;;;;;;;;;
1065;;;;;;;;;;;;;
1067;;;;;;;;;;;;;
1069;;;;;;;;;;;;;
1071;;;;;;;;;;;;;
1073;;;;;;;;;;;;;
1075;;;;;;;;;;;;;
1077;;;;;;;;;;;;;
1079;;;;;;;;;;;;;
1081;;;;;;;;;;;;;
1083;;;;;;;;;;;;;
1085;;;;;;;;;;;;;
1087;;;;;;;;;;;;;
1089;;;;;;;;;;;;;
1091;;;;;;;;;;;;;
1093;;;;;;;;;;;;;
1095;;;;;;;;;;;;;
1097;;;;;;;;;;;;;
1099;;;;;;;;;;;;;
1101;;;;;;;;;;;;;
1103;;;;;;;;;;;;;
1105;;;;;;;;;;;;;
1107;;;;;;;;;;;;;
1109;;;;;;;;;;;;;
1111;;;;;;;;;;;;;
1113;;;;;;;;;;;;;
1115;;;;;;;;;;;;;
1117;;;;;;;;;;;;;
1119;;;;;;;;;;;;;
1121;;;;;;;;;;;;;
1123;;;;;;;;;;;;;
1125;;;;;;;;;;;;;
1127;;;;;;;;;;;;;
1129;;;;;;;;;;;;;
1131;;;;;;;;;;;;;
1133;;;;;;;;;;;;;
1135;;;;;;;;;;;;;
1137;;;;;;;;;;;;;
1139;;;;;;;;;;;;;
1141;;;;;;;;;;;;;
1143;;;;;;;;;;;;;
1145;;;;;;;;;;;;;
1147;;;;;;;;;;;;;
1149;;;;;;;;;;;;;
1151;;;;;;;;;;;;;
1153;;;;;;;;;;;;;
1155;;;;;;;;;;;;;
1157;;;;;;;;;;;;;
1159;;;;;;;;;;;;;
1161;;;;;;;;;;;;;
1163;;;;;;;;;;;;;
1165;;;;;;;;;;;;;
1167;;;;;;;;;;;;;
1169;;;;;;;;;;;;;
1171;;;;;;;;;;;;;
1173;;;;;;;;;;;;;
1175;;;;;;;;;;;;;
1177;;;;;;;;;;;;;
1179;;;;;;;;;;;;;
1181;;;;;;;;;;;;;
1183;;;;;;;;;;;;;
1185;;;;;;;;;;;;;
1187;;;;;;;;;;;;;
1189;;;;;;;;;;;;;
1191;;;;;;;;;;;;;
1193;;;;;;;;;;;;;
1195;;;;;;;;;;;;;
1197;;;;;;;;;;;;;
1199;;;;;;;;;;;;;
1201;;;;;;;;;;;;;
1203;;;;;;;;;;;;;
1205;;;;;;;;;;;;;
1207;;;;;;;;;;;;;
1209;;;;;;;;;;;;;
1211;;;;;;;;;;;;;
1213;;;;;;;;;;;;;
1215;;;;;;;;;;;;;
1217;;;;;;;;;;;;;
1219;;;;;;;;;;;;;
1221;;;;;;;;;;;;;
1223;;;;;;;;;;;;;
1225;;;;;;;;;;;;;
1227;;;;;;;;;;;;;
1229;;;;;;;;;;;;;
1231;;;;;;;;;;;;;
1233;;;;;;;;;;;;;
1235;;;;;;;;;;;;;
1237;;;;;;;;;;;;;
1239;;;;;;;;;;;;;
1241;;;;;;;;;;;;;
1243;;;;;;;;;;;;;
1245;;;;;;;;;;;;;
1247;;;;;;;;;;;;;
1249;;;;;;;;;;;;;
1251;;;;;;;;;;;;;
1253;;;;;;;;;;;;;
1255;;;;;;;;;;;;;
1257;;;;;;;;;;;;;
1259;;;;;;;;;;;;;
1261;;;;;;;;;;;;;
1263;;;;;;;;;;;;;
1265;;;;;;;;;;;;;
1267;;;;;;;;;;;;;
1269;;;;;;;;;;;;;
1271;;;;;;;;;;;;;
1273;;;;;;;;;;;;;
1275;;;;;;;;;;;;;
1277;;;;;;;;;;;;;
1279;;;;;;;;;;;;;
1281;;;;;;;;;;;;;
1283;;;;;;;;;;;;;
1285;;;;;;;;;;;;;
1287;;;;;;;;;;;;;
1289;;;;;;;;;;;;;
1291;;;;;;;;;;;;;
1293;;;;;;;;;;;;;
1295;;;;;;;;;;;;;
1297;;;;;;;;;;;;;
1299;;;;;;;;;;;;;
1301;;;;;;;;;;;;;
1303;;;;;;;;;;;;;
1305;;;;;;;;;;;;;
1307;;;;;;;;;;;;;
1309;;;;;;;;;;;;;
1311;;;;;;;;;;;;;
1313;;;;;;;;;;;;;
1315;;;;;;;;;;;;;
1317;;;;;;;;;;;;;
1319;;;;;;;;;;;;;
1321;;;;;;;;;;;;;
1323;;;;;;;;;;;;;
1325;;;;;;;;;;;;;
1327;;;;;;;;;;;;;
1329;;;;;;;;;;;;;
1331;;;;;;;;;;;;;
1333;;;;;;;;;;;;;
1335;;;;;;;;;;;;;
1337;;;;;;;;;;;;;
1339;;;;;;;;;;;;;
1341;;;;;;;;;;;;;
1343;;;;;;;;;;;;;
1345;;;;;;;;;;;;;
1347;;;;;;;;;;;;;
1349;;;;;;;;;;;;;
1351;;;;;;;;;;;;;
1353;;;;;;;;;;;;;
1355;;;;;;;;;;;;;
1357;;;;;;;;;;;;;
1359;;;;;;;;;;;;;
1361;;;;;;;;;;;;;
1363;;;;;;;;;;;;;
1365;;;;;;;;;;;;;
1367;;;;;;;;;;;;;
1369;;;;;;;;;;;;;
1371;;;;;;;;;;;;;
1373;;;;;;;;;;;;;
1375;;;;;;;;;;;;;
1377;;;;;;;;;;;;;
1379;;;;;;;;;;;;;
1381;;;;;;;;;;;;;
1383;;;;;;;;;;;;;
1385;;;;;;;;;;;;;
1387;;;;;;;;;;;;;
1389;;;;;;;;;;;;;
1391;;;;;;;;;;;;;
1393;;;;;;;;;;;;;
1395;;;;;;;;;;;;;
1397;;;;;;;;;;;;;
1399;;;;;;;;;;;;;
1401;;;;;;;;;;;;;
1403;;;;;;;;;;;;;
1405;;;;;;;;;;;;;
1407;;;;;;;;;;;;;
1409;;;;;;;;;;;;;
1411;;;;;;;;;;;;;
1413;;;;;;;;;;;;;
1415;;;;;;;;;;;;;
1417;;;;;;;;;;;;;
1419;;;;;;;;;;;;;
1421;;;;;;;;;;;;;
1423;;;;;;;;;;;;;
1425;;;;;;;;;;;;;
1427;;;;;;;;;;;;;
1429;;;;;;;;;;;;;
1431;;;;;;;;;;;;;
1433;;;;;;;;;;;;;
1435;;;;;;;;;;;;;
1437;;;;;;;;;;;;;
1439;;;;;;;;;;;;;
1441;;;;;;;;;;;;;
1443;;;;;;;;;;;;;
1445;;;;;;;;;;;;;
1447;;;;;;;;;;;;;
1449;;;;;;;;;;;;;
1451;;;;;;;;;;;;;
1453;;;;;;;;;;;;;
1455;;;;;;;;;;;;;
1457;;;;;;;;;;;;;
1459;;;;;;;;;;;;;
1461;;;;;;;;;;;;;
1463;;;;;;;;;;;;;
1465;;;;;;;;;;;;;
1467;;;;;;;;;;;;;
1469;;;;;;;;;;;;;
1471;;;;;;;;;;;;;
1473;;;;;;;;;;;;;
1475;;;;;;;;;;;;;
1477;;;;;;;;;;;;;
1479;;;;;;;;;;;;;
1481;;;;;;;;;;;;;
1483;;;;;;;;;;;;;
1485;;;;;;;;;;;;;
1487;;;;;;;;;;;;;
1489;;;;;;;;;;;;;
1491;;;;;;;;;;;;;
1493;;;;;;;;;;;;;
1495;;;;;;;;;;;;;
1497;;;;;;;;;;;;;
1499;;;;;;;;;;;;;
1501;;;;;;;;;;;;;
1503;;;;;;;;;;;;;
1505;;;;;;;;;;;;;
1507;;;;;;;;;;;;;
1509;;;;;;;;;;;;;
1511;;;;;;;;;;;;;
1513;;;;;;;;;;;;;
1515;;;;;;;;;;;;;
1517;;;;;;;;;;;;;
1519;;;;;;;;;;;;;
1521;;;;;;;;;;;;;
1523;;;;;;;;;;;;;
1525;;;;;;;;;;;;;
1527;;;;;;;;;;;;;
1529;;;;;;;;;;;;;
1531;;;;;;;;;;;;;
1533;;;;;;;;;;;;;
1535;;;;;;;;;;;;;
1537;;;;;;;;;;;;;
1539;;;;;;;;;;;;;
1541;;;;;;;;;;;;;
1543;;;;;;;;;;;;;
1545;;;;;;;;;;;;;
1547;;;;;;;;;;;;;
1549;;;;;;;;;;;;;
1551;;;;;;;;;;;;;
1553;;;;;;;;;;;;;
1555;;;;;;;;;;;;;
1557;;;;;;;;;;;;;
1559;;;;;;;;;;;;;
1561;;;;;;;;;;;;;
1563;;;;;;;;;;;;;
1565;;;;;;;;;;;;;
1567;;;;;;;;;;;;;
1569;;;;;;;;;;;;;
1571;;;;;;;;;;;;;
1573;;;;;;;;;;;;;
1575;;;;;;;;;;;;;
1577;;;;;;;;;;;;;
1579;;;;;;;;;;;;;
1581;;;;;;;;;;;;;
1583;;;;;;;;;;;;;
1585;;;;;;;;;;;;;
1587;;;;;;;;;;;;;
1589;;;;;;;;;;;;;
1591;;;;;;;;;;;;;
1593;;;;;;;;;;;;;
1595;;;;;;;;;;;;;
1597;;;;;;;;;;;;;
1599;;;;;;;;;;;;;
1601;;;;;;;;;;;;;
1603;;;;;;;;;;;;;
1605;;;;;;;;;;;;;
1607;;;;;;;;;;;;;
1609;;;;;;;;;;;;;
1611;;;;;;;;;;;;;
1613;;;;;;;;;;;;;
1615;;;;;;;;;;;;;
1617;;;;;;;;;;;;;
1619;;;;;;;;;;;;;
1621;;;;;;;;;;;;;
1623;;;;;;;;;;;;;
1625;;;;;;;;;;;;;
1627;;;;;;;;;;;;;
1629;;;;;;;;;;;;;
1631;;;;;;;;;;;;;
1633;;;;;;;;;;;;;
1635;;;;;;;;;;;;;
1637;;;;;;;;;;;;;
1639;;;;;;;;;;;;;
1641;;;;;;;;;;;;;
1643;;;;;;;;;;;;;
1645;;;;;;;;;;;;;
1647;;;;;;;;;;;;;
1649;;;;;;;;;;;;;
1651;;;;;;;;;;;;;
1653;;;;;;;;;;;;;
1655;;;;;;;;;;;;;
1657;;;;;;;;;;;;;
1659;;;;;;;;;;;;;
1661;;;;;;;;;;;;;
1663;;;;;;;;;;;;;
1665;;;;;;;;;;;;;
1667;;;;;;;;;;;;;
1669;;;;;;;;;;;;;
1671;;;;;;;;;;;;;
1673;;;;;;;;;;;;;
1675;;;;;;;;;;;;;
1677;;;;;;;;;;;;;
1679;;;;;;;;;;;;;
1681;;;;;;;;;;;;;
1683;;;;;;;;;;;;;
1685;;;;;;;;;;;;;
1687;;;;;;;;;;;;;
1689;;;;;;;;;;;;;
1691;;;;;;;;;;;;;
1693;;;;;;;;;;;;;
1695;;;;;;;;;;;;;
1697;;;;;;;;;;;;;
1699;;;;;;;;;;;;;
1701;;;;;;;;;;;;;
1703;;;;;;;;;;;;;
1705;;;;;;;;;;;;;
1707;;;;;;;;;;;;;
1709;;;;;;;;;;;;;
1711;;;;;;;;;;;;;
1713;;;;;;;;;;;;;
1715;;;;;;;;;;;;;
1717;;;;;;;;;;;;;
1719;;;;;;;;;;;;;
1721;;;;;;;;;;;;;
1723;;;;;;;;;;;;;
1725;;;;;;;;;;;;;
1727;;;;;;;;;;;;;
1729;;;;;;;;;;;;;
1731;;;;;;;;;;;;;
1733;;;;;;;;;;;;;
1735;;;;;;;;;;;;;
1737;;;;;;;;;;;;;
1739;;;;;;;;;;;;;
1741;;;;;;;;;;;;;
1743;;;;;;;;;;;;;
1745;;;;;;;;;;;;;
1747;;;;;;;;;;;;;
1749;;;;;;;;;;;;;
1751;;;;;;;;;;;;;
1753;;;;;;;;;;;;;
1755;;;;;;;;;;;;;
1757;;;;;;;;;;;;;
1759;;;;;;;;;;;;;
1761;;;;;;;;;;;;;
1763;;;;;;;;;;;;;
1765;;;;;;;;;;;;;
1767;;;;;;;;;;;;;
1769;;;;;;;;;;;;;
1771;;;;;;;;;;;;;
1773;;;;;;;;;;;;;
1775;;;;;;;;;;;;;
1777;;;;;;;;;;;;;
1779;;;;;;;;;;;;;
1781;;;;;;;;;;;;;
1783;;;;;;;;;;;;;
1785;;;;;;;;;;;;;
1787;;;;;;;;;;;;;
1789;;;;;;;;;;;;;
1791;;;;;;;;;;;;;
1793;;;;;;;;;;;;;
1795;;;;;;;;;;;;;
1797;;;;;;;;;;;;;
1799;;;;;;;;;;;;;
1801;;;;;;;;;;;;;
1803;;;;;;;;;;;;;
1805;;;;;;;;;;;;;
1807;;;;;;;;;;;;;
1809;;;;;;;;;;;;;
1811;;;;;;;;;;;;;
1813;;;;;;;;;;;;;
1815;;;;;;;;;;;;;
1817;;;;;;;;;;;;;
1819;;;;;;;;;;;;;
1821;;;;;;;;;;;;;
1823;;;;;;;;;;;;;
1825;;;;;;;;;;;;;
1827;;;;;;;;;;;;;
1829;;;;;;;;;;;;;
1831;;;;;;;;;;;;;
1833;;;;;;;;;;;;;
1835;;;;;;;;;;;;;
1837;;;;;;;;;;;;;
1839;;;;;;;;;;;;;
1841;;;;;;;;;;;;;
1843;;;;;;;;;;;;;
1845;;;;;;;;;;;;;
1847;;;;;;;;;;;;;
1849;;;;;;;;;;;;;
1851;;;;;;;;;;;;;
1853;;;;;;;;;;;;;
1855;;;;;;;;;;;;;
1857;;;;;;;;;;;;;
1859;;;;;;;;;;;;;
1861;;;;;;;;;;;;;
1863;;;;;;;;;;;;;
1865;;;;;;;;;;;;;
1867;;;;;;;;;;;;;
1869;;;;;;;;;;;;;
1871;;;;;;;;;;;;;
1873;;;;;;;;;;;;;
1875;;;;;;;;;;;;;
1877;;;;;;;;;;;;;
1879;;;;;;;;;;;;;
1881;;;;;;;;;;;;;
1883;;;;;;;;;;;;;
1885;;;;;;;;;;;;;
1887;;;;;;;;;;;;;
1889;;;;;;;;;;;;;
1891;;;;;;;;;;;;;
1893;;;;;;;;;;;;;
1895;;;;;;;;;;;;;
1897;;;;;;;;;;;;;
1899;;;;;;;;;;;;;
1901;;;;;;;;;;;;;
1903;;;;;;;;;;;;;
1905;;;;;;;;;;;;;
1907;;;;;;;;;;;;;
1909;;;;;;;;;;;;;
1911;;;;;;;;;;;;;
1913;;;;;;;;;;;;;
1915;;;;;;;;;;;;;
1917;;;;;;;;;;;;;
1919;;;;;;;;;;;;;
1921;;;;;;;;;;;;;
1923;;;;;;;;;;;;;
1925;;;;;;;;;;;;;
1927;;;;;;;;;;;;;
1929;;;;;;;;;;;;;
1931;;;;;;;;;;;;;
1933;;;;;;;;;;;;;
1935;;;;;;;;;;;;;
1937;;;;;;;;;;;;;
1939;;;;;;;;;;;;;
1941;;;;;;;;;;;;;
1943;;;;;;;;;;;;;
1945;;;;;;;;;;;;;
1947;;;;;;;;;;;;;
1949;;;;;;;;;;;;;
1951;;;;;;;;;;;;;
1953;;;;;;;;;;;;;
1955;;;;;;;;;;;;;
1957;;;;;;;;;;;;;
1959;;;;;;;;;;;;;
1961;;;;;;;;;;;;;
1963;;;;;;;;;;;;;
1965;;;;;;;;;;;;;
1967;;;;;;;;;;;;;
1969;;;;;;;;;;;;;
1971;;;;;;;;;;;;;
1973;;;;;;;;;;;;;
1975;;;;;;;;;;;;;
1977;;;;;;;;;;;;;
1979;;;;;;;;;;;;;
1981;;;;;;;;;;;;;
1983;;;;;;;;;;;;;
1985;;;;;;;;;;;;;
1987;;;;;;;;;;;;;
1989;;;;;;;;;;;;;
1991;;;;;;;;;;;;;
1993;;;;;;;;;;;;;
1995;;;;;;;;;;;;;
1997;;;;;;;;;;;;;
1999;;;;;;;;;;;;;
2001;;;;;;;;;;;;;
2003;;;;;;;;;;;;;
2005;;;;;;;;;;;;;
2007;;;;;;;;;;;;;
2009;;;;;;;;;;;;;
2011;;;;;;;;;;;;;
2013;;;;;;;;;;;;;
2015;;;;;;;;;;;;;
2017;;;;;;;;;;;;;
2019;;;;;;;;;;;;;
2021;;;;;;;;;;;;;
2023;;;;;;;;;;;;;
2025;;;;;;;;;;;;;
2027;;;;;;;;;;;;;
2029;;;;;;;;;;;;;
2031;;;;;;;;;;;;;
2033;;;;;;;;;;;;;
2035;;;;;;;;;;;;;
2037;;;;;;;;;;;;;
2039;;;;;;;;;;;;;
2041;;;;;;;;;;;;;
2043;;;;;;;;;;;;;
2045;;;;;;;;;;;;;
2047;;;;;;;;;;;;;
2049;;;;;;;;;;;;;
2051;;;;;;;;;;;;;
2053;;;;;;;;;;;;;
2055;;;;;;;;;;;;;
2057;;;;;;;;;;;;;
2059;;;;;;;;;;;;;
2061;;;;;;;;;;;;;
2063;;;;;;;;;;;;;
2065;;;;;;;;;;;;;
2067;;;;;;;;;;;;;
2069;;;;;;;;;;;;;
2071;;;;;;;;;;;;;
2073;;;;;;;;;;;;;
2075;;;;;;;;;;;;;
2077;;;;;;;;;;;;;
2079;;;;;;;;;;;;;
2081;;;;;;;;;;;;;
2083;;;;;;;;;;;;;
2085;;;;;;;;;;;;;
2087;;;;;;;;;;;;;
2089;;;;;;;;;;;;;
2091;;;;;;;;;;;;;
2093;;;;;;;;;;;;;
2095;;;;;;;;;;;;;
2097;;;;;;;;;;;;;
2099;;;;;;;;;;;;;
2101;;;;;;;;;;;;;
2103;;;;;;;;;;;;;
2105;;;;;;;;;;;;;
2107;;;;;;;;;;;;;
2109;;;;;;;;;;;;;
2111;;;;;;;;;;;;;
2113;;;;;;;;;;;;;
2115;;;;;;;;;;;;;
2117;;;;;;;;;;;;;
2119;;;;;;;;;;;;;
2121;;;;;;;;;;;;;
2123;;;;;;;;;;;;;
2125;;;;;;;;;;;;;
2127;;;;;;;;;;;;;
2129;;;;;;;;;;;;;
2131;;;;;;;;;;;;;
2133;;;;;;;;;;;;;
2135;;;;;;;;;;;;;
2137;;;;;;;;;;;;;
2139;;;;;;;;;;;;;
2141;;;;;;;;;;;;;
2143;;;;;;;;;;;;;
2145;;;;;;;;;;;;;
2147;;;;;;;;;;;;;
2149;;;;;;;;;;;;;
2151;;;;;;;;;;;;;
2153;;;;;;;;;;;;;
2155;;;;;;;;;;;;;
2157;;;;;;;;;;;;;
2159;;;;;;;;;;;;;
2161;;;;;;;;;;;;;
2163;;;;;;;;;;;;;
2165;;;;;;;;;;;;;
2167;;;;;;;;;;;;;
2169;;;;;;;;;;;;;
2171;;;;;;;;;;;;;
2173;;;;;;;;;;;;;
2175;;;;;;;;;;;;;
2177;;;;;;;;;;;;;
2179;;;;;;;;;;;;;
2181;;;;;;;;;;;;;
2183;;;;;;;;;;;;;
2185;;;;;;;;;;;;;
2187;;;;;;;;;;;;;
2189;;;;;;;;;;;;;
2191;;;;;;;;;;;;;
2193;;;;;;;;;;;;;
2195;;;;;;;;;;;;;
2197;;;;;;;;;;;;;
2199;;;;;;;;;;;;;
2201;;;;;;;;;;;;;
2203;;;;;;;;;;;;;
2205;;;;;;;;;;;;;
2207;;;;;;;;;;;;;
2209;;;;;;;;;;;;;
2211;;;;;;;;;;;;;
2213;;;;;;;;;;;;;
2215;;;;;;;;;;;;;
2217;;;;;;;;;;;;;
2219;;;;;;;;;;;;;
2221;;;;;;;;;;;;;
2223;;;;;;;;;;;;;
2225;;;;;;;;;;;;;
2227;;;;;;;;;;;;;
2229;;;;;;;;;;;;;
2231;;;;;;;;;;;;;
2233;;;;;;;;;;;;;
2235;;;;;;;;;;;;;
2237;;;;;;;;;;;;;
2239;;;;;;;;;;;;;
2241;;;;;;;;;;;;;
2243;;;;;;;;;;;;;
2245;;;;;;;;;;;;;
2247;;;;;;;;;;;;;
2249;;;;;;;;;;;;;
2251;;;;;;;;;;;;;
2253;;;;;;;;;;;;;
2255;;;;;;;;;;;;;
2257;;;;;;;;;;;;;
2259;;;;;;;;;;;;;
2261;;;;;;;;;;;;;
2263;;;;;;;;;;;;;
2265;;;;;;;;;;;;;
2267;;;;;;;;;;;;;
2269;;;;;;;;;;;;;
2271;;;;;;;;;;;;;
2273;;;;;;;;;;;;;
2275;;;;;;;;;;;;;
2277;;;;;;;;;;;;;
2279;;;;;;;;;;;;;
2281;;;;;;;;;;;;;
2283;;;;;;;;;;;;;
2285;;;;;;;;;;;;;
2287;;;;;;;;;;;;;
2289;;;;;;;;;;;;;
2291;;;;;;;;;;;;;
2293;;;;;;;;;;;;;
2295;;;;;;;;;;;;;
2297;;;;;;;;;;;;;
2299;;;;;;;;;;;;;
2301;;;;;;;;;;;;;
2303;;;;;;;;;;;;;
2305;;;;;;;;;;;;;
2307;;;;;;;;;;;;;
2309;;;;;;;;;;;;;
2311;;;;;;;;;;;;;
2313;;;;;;;;;;;;;
2315;;;;;;;;;;;;;
2317;;;;;;;;;;;;;
2319;;;;;;;;;;;;;
2321;;;;;;;;;;;;;
2323;;;;;;;;;;;;;
2325;;;;;;;;;;;;;
2327;;;;;;;;;;;;;
2329;;;;;;;;;;;;;
2331;;;;;;;;;;;;;
2333;;;;;;;;;;;;;
2335;;;;;;;;;;;;;
2337;;;;;;;;;;;;;
2339;;;;;;;;;;;;;
2341;;;;;;;;;;;;;
2343;;;;;;;;;;;;;
2345;;;;;;;;;;;;;
2347;;;;;;;;;;;;;
2349;;;;;;;;;;;;;
2351;;;;;;;;;;;;;
2353;;;;;;;;;;;;;
2355;;;;;;;;;;;;;
2357;;;;;;;;;;;;;
2359;;;;;;;;;;;;;
2361;;;;;;;;;;;;;
2363;;;;;;;;;;;;;
2365;;;;;;;;;;;;;
2367;;;;;;;;;;;;;
2369;;;;;;;;;;;;;
2371;;;;;;;;;;;;;
2373;;;;;;;;;;;;;
2375;;;;;;;;;;;;;
2377;;;;;;;;;;;;;
2379;;;;;;;;;;;;;
2381;;;;;;;;;;;;;
2383;;;;;;;;;;;;;
2385;;;;;;;;;;;;;
2387;;;;;;;;;;;;;
2389;;;;;;;;;;;;;
2391;;;;;;;;;;;;;
2393;;;;;;;;;;;;;
2395;;;;;;;;;;;;;
2397;;;;;;;;;;;;;
2399;;;;;;;;;;;;;
2401;;;;;;;;;;;;;
2403;;;;;;;;;;;;;
2405;;;;;;;;;;;;;
2407;;;;;;;;;;;;;
2409;;;;;;;;;;;;;
2411;;;;;;;;;;;;;
2413;;;;;;;;;;;;;
2415;;;;;;;;;;;;;
2417;;;;;;;;;;;;;
2419;;;;;;;;;;;;;
2421;;;;;;;;;;;;;
2423;;;;;;;;;;;;;
2425;;;;;;;;;;;;;
2427;;;;;;;;;;;;;
2429;;;;;;;;;;;;;
2431;;;;;;;;;;;;;
2433;;;;;;;;;;;;;
2435;;;;;;;;;;;;;
2437;;;;;;;;;;;;;
2439;;;;;;;;;;;;;
2441;;;;;;;;;;;;;
2443;;;;;;;;;;;;;
2445;;;;;;;;;;;;;
2447;;;;;;;;;;;;;
2449;;;;;;;;;;;;;
2451;;;;;;;;;;;;;
2453;;;;;;;;;;;;;
2455;;;;;;;;;;;;;
2457;;;;;;;;;;;;;
2459;;;;;;;;;;;;;
2461;;;;;;;;;;;;;
2463;;;;;;;;;;;;;
2465;;;;;;;;;;;;;
2467;;;;;;;;;;;;;
2469;;;;;;;;;;;;;
2471;;;;;;;;;;;;;
2473;;;;;;;;;;;;;
2475;;;;;;;;;;;;;
2477;;;;;;;;;;;;;
2479;;;;;;;;;;;;;
2481;;;;;;;;;;;;;
2483;;;;;;;;;;;;;
2485;;;;;;;;;;;;;
2487;;;;;;;;;;;;;
2489;;;;;;;;;;;;;
2491;;;;;;;;;;;;;
2493;;;;;;;;;;;;;
2495;;;;;;;;;;;;;